trial,common,reward_1_1,reward_1_2,reward_2_1,reward_2_2,isymbol_lft,isymbol_rgt,rt1,choice1,final_state,fsymbol_lft,fsymbol_rgt,rt2,choice2,reward,slow,Subject,Condition
0,1,0.74704119,0.587056894,0.444923092,0.485666086,2,1,1.575897476,2,2,2,1,1.504144629,2,0,0,1,story
1,1,0.742489301,0.607044786,0.414280349,0.485486566,1,2,1.2869252,2,2,1,2,1.500000753,1,0,0,1,story
2,1,0.738472129,0.605755701,0.416242299,0.512770096,1,2,0.960473314,1,1,2,1,1.427416781,2,1,0,1,story
3,1,0.714190214,0.593633275,0.46752378,0.542872436,1,2,0.725171928,1,1,2,1,0.68906678,2,0,0,1,story
4,1,0.711526683,0.530242602,0.450061787,0.529215609,2,1,0.821100648,1,1,1,2,1.229860797,1,1,0,1,story
5,0,0.713491921,0.522343174,0.476497488,0.523090007,1,2,1.012046501,1,2,1,2,NaN,NaN,0,1,1,story
6,1,0.707045033,0.529013072,0.456000303,0.554086656,2,1,0.931223295,1,1,1,2,0.73198969,1,1,0,1,story
7,1,0.664337617,0.495531618,0.428616614,0.561298225,1,2,0.900930903,1,1,1,2,0.696339883,1,1,0,1,story
8,1,0.648849444,0.476302273,0.447478392,0.565248136,2,1,0.933177254,1,1,1,2,0.70790603,1,1,0,1,story
9,1,0.694334566,0.502194983,0.463013073,0.507014176,2,1,1.128105458,1,1,1,2,0.634754916,1,0,0,1,story
10,1,0.694256404,0.474758009,0.46653832,0.500043779,2,1,0.769987021,1,1,2,1,0.766702598,2,0,0,1,story
11,1,0.724012954,0.498102773,0.484971967,0.519847336,1,2,0.986150216,2,2,1,2,1.01574046,2,1,0,1,story
12,1,0.736465639,0.477634923,0.523785949,0.523212091,1,2,0.843883075,2,2,1,2,0.814670423,2,1,0,1,story
13,0,0.71652698,0.485200628,0.552439039,0.541474707,2,1,1.420373609,2,1,2,1,1.435968516,2,1,0,1,story
14,1,0.706228455,0.476157933,0.570235187,0.532577528,2,1,0.828479525,1,1,1,2,0.893929317,2,1,0,1,story
15,1,0.673515417,0.473774902,0.564923131,0.517095236,1,2,0.682749863,1,1,1,2,0.584046907,2,0,0,1,story
16,1,0.666026093,0.453635529,0.606053402,0.506582175,2,1,0.693223312,2,2,2,1,0.611928492,2,1,0,1,story
17,1,0.626841421,0.443962938,0.612558635,0.478589657,1,2,1.26510589,2,2,2,1,0.739022014,2,0,0,1,story
18,1,0.651820453,0.450847219,0.572289176,0.47314315,2,1,0.946053373,2,2,2,1,0.840787297,1,0,0,1,story
19,1,0.701609201,0.486568868,0.579156983,0.507491587,2,1,1.195642708,2,2,2,1,0.640902172,2,0,0,1,story
20,1,0.720921976,0.464079818,0.557264192,0.509501214,1,2,1.106268068,1,1,2,1,0.913996874,1,0,0,1,story
21,0,0.697155317,0.436121001,0.599231564,0.496599609,2,1,0.706149456,1,2,2,1,1.384444449,2,1,0,1,story
22,0,0.686151036,0.382162656,0.635113721,0.488189154,1,2,0.706348348,2,1,2,1,1.12449407,2,0,0,1,story
23,1,0.719986686,0.386010037,0.670736099,0.488032006,2,1,1.029175887,2,2,2,1,0.781832219,2,0,0,1,story
24,1,0.746908002,0.394400992,0.592313431,0.519404455,2,1,0.719496889,1,1,1,2,1.364752074,1,1,0,1,story
25,0,0.740794769,0.415282742,0.610701422,0.56157703,2,1,0.785895333,1,2,2,1,1.249204208,1,1,0,1,story
26,1,0.741238891,0.447736145,0.63686381,0.598346078,2,1,0.623177317,2,2,2,1,0.589614666,1,0,0,1,story
27,1,0.743788156,0.483517472,0.640622666,0.618732515,2,1,0.559256579,1,1,2,1,1.011047221,1,1,0,1,story
28,1,0.711278215,0.465828199,0.605691437,0.602336334,1,2,0.662384571,1,1,2,1,0.636136308,1,1,0,1,story
29,1,0.71691548,0.446557346,0.609367583,0.598588512,1,2,0.971867993,1,1,2,1,0.681212371,1,0,0,1,story
30,1,0.703670547,0.496343277,0.613787424,0.615621739,1,2,0.637203392,1,1,2,1,0.658039393,2,0,0,1,story
31,0,0.728784617,0.440652906,0.602888724,0.590455791,1,2,0.798295017,2,1,1,2,1.842724682,1,1,0,1,story
32,1,0.692805711,0.42553726,0.651739297,0.595000048,1,2,0.845614335,1,1,1,2,0.83747515,1,1,0,1,story
33,0,0.65556888,0.428368576,0.62986627,0.62664986,2,1,0.896740619,1,2,2,1,1.228126523,2,1,0,1,story
34,1,0.669971538,0.412686819,0.665137455,0.647997383,2,1,0.748880105,2,2,1,2,0.803743742,2,0,0,1,story
35,0,0.667586037,0.41185654,0.662958203,0.65229987,1,2,1.104990642,1,2,1,2,1.141566802,1,1,0,1,story
36,1,0.667110842,0.402574657,0.683431474,0.622479051,2,1,0.724292888,2,2,1,2,0.566945245,1,1,0,1,story
37,1,0.703927051,0.385577805,0.686725811,0.657216101,2,1,0.607516715,2,2,1,2,0.603124526,1,1,0,1,story
38,0,0.678672974,0.364255778,0.694133093,0.618620304,1,2,0.96918597,2,1,1,2,0.713994523,1,1,0,1,story
39,1,0.718450912,0.383621262,0.68879526,0.627807734,1,2,0.733932198,1,1,1,2,0.542342358,1,1,0,1,story
40,1,0.715547921,0.387914503,0.72783393,0.651266595,2,1,0.737295274,1,1,2,1,1.208882558,1,1,0,1,story
41,1,0.707880829,0.380084725,0.736637686,0.655516568,1,2,0.627162079,1,1,1,2,1.047085169,1,0,0,1,story
42,1,0.698254186,0.37211693,0.745742474,0.684331817,1,2,0.769537707,2,2,1,2,0.577251445,1,1,0,1,story
43,1,0.722670113,0.375442293,0.731003382,0.69945839,2,1,1.245807381,2,2,2,1,0.762268822,1,1,0,1,story
44,1,0.749979718,0.401228407,0.721554125,0.681765074,2,1,0.607343438,2,2,1,2,0.732582447,1,1,0,1,story
45,1,0.727580254,0.406050382,0.749604959,0.682554071,2,1,0.588800717,2,2,2,1,0.763054746,1,0,0,1,story
46,1,0.748995106,0.441096559,0.715724428,0.630036914,2,1,0.595937911,2,2,1,2,0.866980714,2,1,0,1,story
47,0,0.722586588,0.466179603,0.692485891,0.62622602,2,1,0.681534213,2,1,1,2,1.21981165,2,1,0,1,story
48,1,0.662377943,0.448885694,0.656689582,0.602492597,1,2,0.74650998,1,1,2,1,0.630235858,2,1,0,1,story
49,1,0.63152187,0.427061819,0.660929125,0.655003794,1,2,0.60080533,1,1,2,1,0.673966389,2,1,0,1,story
50,1,0.569212363,0.438193391,0.640128268,0.610075681,1,2,1.282193991,1,1,1,2,0.875366104,2,1,0,1,story
51,0,0.589469194,0.40565855,0.607175595,0.606737273,1,2,0.727062302,1,2,1,2,1.15570528,1,1,0,1,story
52,1,0.580149916,0.40469383,0.564699547,0.590548415,1,2,0.649735067,2,2,2,1,0.69055485,1,0,0,1,story
53,1,0.542252898,0.419569691,0.591863736,0.566575671,2,1,0.969419818,1,1,2,1,0.66693075,2,1,0,1,story
54,0,0.551409438,0.435926797,0.606198146,0.552476225,1,2,0.772493959,1,2,1,2,1.044145491,1,1,0,1,story
55,1,0.541141784,0.411761856,0.590767777,0.544215724,1,2,0.749871248,2,2,1,2,0.562900815,1,0,0,1,story
56,1,0.52802435,0.43201477,0.596966044,0.532357006,2,1,0.80750671,1,1,2,1,0.783769303,2,1,0,1,story
57,1,0.542144603,0.440024458,0.562666222,0.497476462,1,2,0.632869363,1,1,2,1,0.662086234,2,1,0,1,story
58,0,0.586480233,0.480490661,0.590785574,0.498671248,2,1,0.781824384,1,2,2,1,1.136121391,2,0,0,1,story
59,1,0.609325536,0.440212075,0.559070524,0.505386522,1,2,0.644164597,1,1,2,1,0.512177136,2,0,0,1,story
60,0,0.567173124,0.461817246,0.562765054,0.513152697,2,1,0.700347247,1,2,1,2,1.007071801,2,1,0,1,story
61,1,0.563946968,0.446115778,0.571795614,0.517848945,1,2,0.771624561,2,2,1,2,0.614899811,2,1,0,1,story
62,0,0.521544873,0.426691958,0.581317982,0.480717687,1,2,0.782363501,2,1,2,1,1.199844443,1,1,0,1,story
63,0,0.475828929,0.437733275,0.578837521,0.447060149,2,1,0.744172703,1,2,1,2,0.852376046,2,0,0,1,story
64,0,0.489519,0.444107946,0.593651953,0.45166132,1,2,0.88870992,1,2,1,2,1.006184021,1,1,0,1,story
65,0,0.476451686,0.436769817,0.556539126,0.416558835,2,1,0.68033996,2,1,2,1,1.200920567,1,1,0,1,story
66,1,0.515843262,0.459554431,0.595324702,0.436587801,2,1,0.724696698,1,1,1,2,0.811865751,1,0,0,1,story
67,0,0.527447475,0.393468618,0.593555263,0.387466351,1,2,0.798156396,2,1,1,2,1.207252551,2,0,0,1,story
68,1,0.587562053,0.450265678,0.583467448,0.45814588,2,1,0.725242444,2,2,1,2,1.157880431,1,1,0,1,story
69,0,0.555291956,0.432041933,0.591702253,0.42985775,2,1,0.635513115,2,1,1,2,1.376112098,2,0,0,1,story
70,1,0.558495959,0.428210282,0.576755069,0.434605258,2,1,0.625641162,2,2,2,1,0.877938133,1,0,0,1,story
71,1,0.571592177,0.44430478,0.579382771,0.411562333,2,1,0.624605419,2,2,2,1,0.64189211,2,0,0,1,story
72,1,0.567054933,0.460545356,0.516609629,0.413123425,2,1,0.576381445,1,1,2,1,1.417266079,1,0,0,1,story
73,0,0.598020657,0.469074757,0.554261745,0.398196093,1,2,0.698889612,2,1,1,2,1.746020888,2,0,0,1,story
74,1,0.601477893,0.470304556,0.533383305,0.396595142,1,2,1.145693199,2,2,2,1,0.83817127,1,0,0,1,story
75,1,0.618702071,0.523192063,0.497704493,0.432702508,2,1,0.742979655,1,1,2,1,1.011073138,1,1,0,1,story
76,1,0.675787382,0.531002539,0.514522795,0.494072596,1,2,0.95059443,1,1,1,2,0.825686605,1,0,0,1,story
77,1,0.655889977,0.52087832,0.524251567,0.478673665,1,2,0.650615313,2,2,1,2,1.0501261,2,1,0,1,story
78,1,0.604901197,0.560921291,0.535783504,0.491858082,1,2,0.7058692,2,2,1,2,1.184168472,2,1,0,1,story
79,0,0.550568491,0.519915409,0.540551512,0.499266324,2,1,0.69711345,2,1,2,1,1.090160864,2,0,0,1,story
80,1,0.56714206,0.555141783,0.55498591,0.541597266,1,2,0.971447608,2,2,1,2,0.634201334,2,1,0,1,story
81,1,0.579984867,0.596479416,0.61252237,0.489780743,1,2,1.096657386,2,2,1,2,0.573006617,2,0,0,1,story
82,1,0.571568156,0.558146484,0.586842526,0.493676904,1,2,0.868601078,1,1,2,1,0.898670169,1,1,0,1,story
83,0,0.602137758,0.553273341,0.601235841,0.499644831,2,1,0.590098032,1,2,1,2,1.296359892,1,1,0,1,story
84,1,0.65276674,0.578125866,0.564522368,0.510103349,1,2,1.078922586,2,2,1,2,1.005859165,1,1,0,1,story
85,1,0.637545971,0.56511233,0.575093197,0.526106471,2,1,0.872485189,2,2,1,2,1.025922804,1,1,0,1,story
86,1,0.670598919,0.596137051,0.570084074,0.571018617,2,1,0.712368133,2,2,2,1,1.228652079,1,1,0,1,story
87,1,0.696111853,0.64764988,0.543526265,0.602691534,1,2,0.837004138,2,2,1,2,0.761849643,1,1,0,1,story
88,0,0.657136777,0.66250778,0.503010177,0.596283996,2,1,0.647036169,2,1,2,1,1.189799514,1,1,0,1,story
89,0,0.642812404,0.668893553,0.464156233,0.582780984,1,2,0.626511764,1,2,1,2,1.164332051,1,1,0,1,story
90,1,0.669229024,0.674823894,0.44733857,0.59812253,2,1,0.585852601,2,2,1,2,0.552186587,1,0,0,1,story
91,1,0.647153022,0.677781048,0.428600593,0.544788207,2,1,0.624267002,1,1,2,1,0.886547727,1,1,0,1,story
92,1,0.607155971,0.712603604,0.413293722,0.571977365,2,1,0.776111374,1,1,2,1,0.698465009,1,1,0,1,story
93,0,0.643822912,0.731434868,0.413536375,0.57829718,2,1,0.582339152,1,2,2,1,1.576673755,2,0,0,1,story
94,1,0.672080308,0.731221342,0.420667647,0.571678593,2,1,0.893049674,1,1,1,2,0.985109651,1,0,0,1,story
95,1,0.694675538,0.727227682,0.417995597,0.543729597,2,1,0.654626896,1,1,2,1,1.186953557,2,1,0,1,story
96,1,0.674231296,0.711170979,0.450470163,0.61300601,1,2,0.863871678,1,1,1,2,0.547971291,2,1,0,1,story
97,1,0.690613742,0.742218541,0.435051037,0.593668933,2,1,0.493059136,1,1,2,1,0.609106944,2,1,0,1,story
98,1,0.696557704,0.69813563,0.405030957,0.611114313,2,1,0.688818165,1,1,2,1,0.83996702,2,1,0,1,story
99,1,0.69936995,0.703883118,0.355725394,0.575620971,2,1,0.687337327,1,1,1,2,0.834945008,2,0,0,1,story
100,0,0.723147034,0.717497292,0.33001234,0.608849083,2,1,0.915683233,2,1,2,1,0.875001469,2,1,0,1,story
101,1,0.686387987,0.708347275,0.358741089,0.616263568,1,2,0.716125677,1,1,2,1,0.532906158,2,1,0,1,story
102,1,0.677117746,0.722229201,0.343978608,0.637677664,2,1,0.658928981,1,1,1,2,0.548236178,2,0,0,1,story
103,0,0.631425652,0.744585384,0.346097429,0.608389387,2,1,0.658780415,1,2,1,2,1.116472411,2,1,0,1,story
104,1,0.618572831,0.735108891,0.390005808,0.579296033,2,1,0.710037184,2,2,1,2,0.925889686,2,1,0,1,story
105,1,0.618627139,0.74275329,0.385317974,0.572001435,2,1,0.772229674,2,2,2,1,0.582927991,2,0,0,1,story
106,1,0.604013684,0.742060856,0.379576226,0.590415923,2,1,0.519891417,1,1,1,2,0.751817673,1,1,0,1,story
107,0,0.653732479,0.74557016,0.365225136,0.585948011,2,1,0.525470929,1,2,1,2,1.236999799,1,0,0,1,story
108,1,0.600436187,0.705715964,0.380102782,0.580423848,2,1,0.804163222,1,1,2,1,0.948028427,1,0,0,1,story
109,1,0.611687472,0.667502162,0.3795157,0.544253889,2,1,0.525116841,1,1,2,1,0.613265284,2,1,0,1,story
110,1,0.625171596,0.662062972,0.363658178,0.539242767,1,2,0.839631315,1,1,1,2,0.987166973,2,1,0,1,story
111,1,0.648417525,0.684323196,0.364702916,0.555360378,2,1,0.732306711,1,1,2,1,0.506926098,2,1,0,1,story
112,1,0.65814174,0.724652415,0.377561035,0.561634417,1,2,0.739888096,1,1,1,2,0.610073979,2,0,0,1,story
113,0,0.658516838,0.726203193,0.377979703,0.544535821,2,1,0.626564802,1,2,2,1,0.861740223,2,0,0,1,story
114,1,0.657218156,0.698316094,0.354359827,0.551915282,2,1,0.656526913,1,1,1,2,0.618214671,1,1,0,1,story
115,0,0.685149089,0.700745977,0.377846702,0.572960873,1,2,0.768441091,1,2,2,1,1.356491444,1,0,0,1,story
116,0,0.704690681,0.676602111,0.423710086,0.615356093,1,2,1.167871719,1,2,1,2,1.094875498,1,1,0,1,story
117,1,0.726642646,0.690746608,0.432197405,0.584468174,1,2,0.839167536,2,2,2,1,0.67522694,1,0,0,1,story
118,0,0.725907666,0.657272639,0.441697063,0.584626043,2,1,0.691494764,1,2,2,1,1.077299812,2,1,0,1,story
119,1,0.741732842,0.682381149,0.467644211,0.608943738,1,2,0.97366766,2,2,2,1,0.593954118,2,0,0,1,story
120,1,0.717395776,0.690279013,0.469119504,0.622441748,2,1,0.524544275,1,1,2,1,0.613285776,1,0,0,1,story
121,1,0.724719723,0.68512793,0.466619615,0.606043063,2,1,0.564835789,1,1,1,2,0.600287007,2,1,0,1,story
122,0,0.749569138,0.661206757,0.471957714,0.64052432,2,1,0.6141166,1,2,1,2,1.456864486,1,1,0,1,story
123,1,0.734934915,0.655921708,0.448811806,0.672106653,2,1,0.684303628,2,2,1,2,0.552474678,1,0,0,1,story
124,1,0.720654663,0.702878162,0.407938226,0.660273493,1,2,1.131932916,1,1,2,1,0.499759371,2,1,0,1,story
125,0,0.728616532,0.693851329,0.39906898,0.665275793,2,1,0.501765464,1,2,2,1,1.203808713,2,1,0,1,story
126,0,0.698844391,0.682781062,0.396934888,0.645960401,1,2,0.673423355,2,1,2,1,1.14987625,2,1,0,1,story
127,0,0.707694826,0.670253072,0.377748497,0.673218388,2,1,0.822704136,1,2,2,1,0.921242855,2,1,0,1,story
128,1,0.746966264,0.631497967,0.387401085,0.686211216,2,1,0.691909121,2,2,2,1,0.549087193,2,1,0,1,story
129,1,0.748082207,0.585611017,0.39507657,0.680741536,1,2,1.155268924,1,1,1,2,0.716686491,2,1,0,1,story
130,1,0.746982808,0.619458931,0.385272534,0.68772382,2,1,0.972135592,1,1,1,2,1.476019553,2,1,0,1,story
131,1,0.688224463,0.642159142,0.414627826,0.687588699,1,2,0.725306331,1,1,2,1,0.840161693,2,0,0,1,story
132,0,0.695634798,0.647390075,0.401961554,0.684477686,1,2,0.588140759,2,1,2,1,1.148087733,1,1,0,1,story
133,1,0.740149986,0.65983617,0.427061947,0.685038633,2,1,0.578754583,1,1,1,2,0.743879489,1,1,0,1,story
134,1,0.736446428,0.638134767,0.444769232,0.716648893,1,2,0.717906057,1,1,1,2,1.190052649,1,1,0,1,story
135,0,0.742370815,0.636726131,0.459626981,0.746078028,1,2,1.156327268,1,2,2,1,1.079994793,2,1,0,1,story
136,0,0.746486768,0.600931875,0.473524595,0.732906404,1,2,0.615714061,2,1,2,1,0.950921998,1,1,0,1,story
137,1,0.74224491,0.554126824,0.483722991,0.706703065,2,1,1.031389008,1,1,2,1,1.033642811,1,1,0,1,story
138,1,0.710013359,0.571527644,0.411427962,0.701586593,2,1,0.743929814,1,1,2,1,0.70048406,1,1,0,1,story
139,1,0.716484286,0.57788017,0.447636295,0.701464068,2,1,0.758539605,1,1,2,1,0.617094851,1,1,0,1,story
140,1,0.727373277,0.655017802,0.478586226,0.713951182,1,2,0.973934657,1,1,1,2,0.734714806,1,1,0,1,story
141,1,0.701333592,0.607868367,0.456099469,0.726181672,2,1,0.973840334,1,1,1,2,1.092538522,1,1,0,1,story
142,1,0.728446754,0.619193617,0.452572069,0.7274329,1,2,0.926472197,1,1,2,1,0.638472983,1,1,0,1,story
143,1,0.726510978,0.631551966,0.454464397,0.736644246,1,2,0.669983736,1,1,2,1,0.565186562,1,1,0,1,story
144,0,0.73031987,0.683583753,0.471534238,0.718793819,2,1,0.844247107,1,2,1,2,0.980731927,2,1,0,1,story
145,0,0.724054543,0.680685891,0.449377926,0.678205022,1,2,0.696718379,2,1,1,2,0.69895832,1,1,0,1,story
146,1,0.739482175,0.693647404,0.485323988,0.721566057,2,1,0.727900058,2,2,1,2,1.168614548,2,0,0,1,story
147,1,0.738380695,0.681176926,0.432880923,0.723801807,2,1,0.576705096,1,1,1,2,0.596829608,1,1,0,1,story
148,1,0.748386817,0.68514406,0.462341728,0.72991018,2,1,0.705312605,1,1,1,2,0.660046691,1,1,0,1,story
149,0,0.738326062,0.670651843,0.420334867,0.723718928,1,2,0.730975946,1,2,2,1,1.177801531,1,1,0,1,story
0,0,0.413382451,0.566164804,0.380839346,0.42975083,2,1,0.663765462,1,2,2,1,0.846271628,2,0,0,2,story
1,1,0.433515165,0.558316598,0.393522311,0.423762558,2,1,0.689081338,1,1,2,1,0.790553678,1,1,0,2,story
2,1,0.417931898,0.578489797,0.384281581,0.477255681,1,2,0.78013779,1,1,1,2,0.963735146,1,1,0,2,story
3,0,0.404892885,0.556348232,0.403054925,0.4216266,1,2,0.595064115,1,2,1,2,0.948125176,2,1,0,2,story
4,1,0.376306883,0.559130479,0.383973036,0.454027149,1,2,0.856274364,1,1,1,2,0.916442663,1,0,0,2,story
5,1,0.39448723,0.571878053,0.375238777,0.479183708,2,1,0.819026504,1,1,1,2,0.624950277,1,1,0,2,story
6,1,0.410669404,0.6045597,0.385241885,0.501048405,2,1,0.785921615,1,1,1,2,0.708761955,1,0,0,2,story
7,1,0.408623926,0.599640452,0.406598911,0.517648497,1,2,0.598238243,1,1,2,1,0.819511076,2,0,0,2,story
8,0,0.367313455,0.593521117,0.391207342,0.48314656,2,1,0.524119212,1,2,2,1,0.645764274,2,1,0,2,story
9,0,0.365715893,0.566327397,0.387224394,0.485041984,1,2,0.803138388,2,1,2,1,1.014057411,1,0,0,2,story
10,1,0.347717067,0.584198754,0.413823584,0.528446462,1,2,0.637663061,2,2,1,2,0.760604835,2,0,0,2,story
11,1,0.296378815,0.585711247,0.446145952,0.526475156,2,1,0.809109352,2,2,1,2,0.892676935,2,1,0,2,story
12,1,0.322148161,0.563235209,0.440672217,0.510551148,2,1,0.782237602,2,2,2,1,0.621295194,2,0,0,2,story
13,0,0.326242606,0.577992721,0.462905023,0.453520152,2,1,0.705625797,2,1,2,1,0.994562728,1,0,0,2,story
14,1,0.338075662,0.571520236,0.48217114,0.463506246,2,1,0.523294415,2,2,2,1,0.745901027,2,0,0,2,story
15,1,0.300562969,0.585595266,0.499664484,0.450785206,2,1,0.635498157,2,2,1,2,0.731936733,2,1,0,2,story
16,1,0.343367749,0.5684819,0.515051052,0.454608934,2,1,0.620808813,2,2,2,1,0.679994106,2,0,0,2,story
17,1,0.303135274,0.564921647,0.509194895,0.461682941,2,1,0.590761128,2,2,2,1,0.755006642,2,0,0,2,story
18,1,0.299189009,0.531749018,0.539712453,0.467916657,2,1,0.491257211,2,2,2,1,0.789471527,2,0,0,2,story
19,0,0.321804313,0.574258107,0.519526696,0.499735432,1,2,0.805284608,2,1,2,1,0.769209002,1,0,0,2,story
20,1,0.341216074,0.602979694,0.536902468,0.488939634,1,2,0.64383141,2,2,1,2,0.86863517,2,1,0,2,story
21,1,0.344626942,0.611092346,0.532640495,0.476053164,2,1,0.999899349,2,2,1,2,1.094491248,2,0,0,2,story
22,1,0.320988304,0.605374104,0.542315072,0.502695126,2,1,0.808613328,2,2,1,2,0.713126117,2,0,0,2,story
23,0,0.29396633,0.603189539,0.569662468,0.525647843,1,2,0.879917743,2,1,1,2,0.997712748,1,0,0,2,story
24,1,0.337800925,0.613825418,0.534642388,0.486963648,2,1,0.885544264,2,2,2,1,0.811878765,2,0,0,2,story
25,1,0.373917899,0.620846709,0.520061878,0.453764112,2,1,0.574075335,1,1,2,1,0.621613119,2,0,0,2,story
26,1,0.34870013,0.628714046,0.52330128,0.477318347,2,1,0.684385389,1,1,1,2,0.825862345,2,0,0,2,story
27,1,0.357777649,0.593394106,0.536692601,0.409534881,2,1,0.580501038,1,1,2,1,0.951506031,2,1,0,2,story
28,1,0.379137254,0.587711495,0.528478348,0.42463332,2,1,0.648388738,1,1,1,2,0.776364577,2,1,0,2,story
29,0,0.390271419,0.570123082,0.518433104,0.434573799,2,1,0.494818876,1,2,2,1,1.372288747,1,0,0,2,story
30,1,0.39929364,0.590684962,0.53664079,0.405097262,1,2,0.61012171,1,1,1,2,0.749406942,2,1,0,2,story
31,1,0.37011493,0.602289192,0.519105335,0.376408849,2,1,0.624126685,1,1,2,1,0.63750003,2,0,0,2,story
32,0,0.359062503,0.592410865,0.530056209,0.388444339,2,1,0.52838875,1,2,2,1,0.863928674,1,1,0,2,story
33,1,0.329929629,0.61538878,0.555701918,0.395023944,1,2,0.736292759,2,2,1,2,1.114914392,1,1,0,2,story
34,0,0.343715694,0.651133252,0.548195934,0.417344247,2,1,0.920901449,2,1,2,1,1.259760752,2,1,0,2,story
35,1,0.308513997,0.688157037,0.5627015,0.389261705,1,2,0.736371411,2,2,2,1,1.073055263,1,1,0,2,story
36,0,0.310850611,0.667282618,0.620250896,0.352535782,1,2,0.752021461,2,1,1,2,0.904985607,2,1,0,2,story
37,1,0.315783483,0.70000353,0.613539033,0.375215276,1,2,0.583832772,2,2,2,1,0.580017671,1,1,0,2,story
38,0,0.341045321,0.698314924,0.616351927,0.32120703,2,1,1.022749874,2,1,1,2,0.744591959,2,1,0,2,story
39,1,0.377826698,0.70847346,0.595221951,0.317760707,1,2,0.755858862,2,2,2,1,0.932971753,1,1,0,2,story
40,0,0.388300393,0.741249368,0.538413781,0.280596175,1,2,0.644725518,2,1,2,1,1.158851938,2,0,0,2,story
41,1,0.349657104,0.732635815,0.494720027,0.264990172,2,1,0.787727008,1,1,2,1,0.653768452,1,0,0,2,story
42,0,0.326370539,0.716136653,0.473616464,0.294100678,1,2,0.692881974,2,1,1,2,1.936358031,2,0,0,2,story
43,0,0.330062168,0.736230992,0.472820194,0.271265996,1,2,0.736958141,2,1,2,1,1.225594203,2,1,0,2,story
44,1,0.365018804,0.74699771,0.496852545,0.254782405,1,2,0.578353914,2,2,1,2,0.89999554,1,1,0,2,story
45,0,0.368518693,0.698318318,0.527115029,0.276769227,2,1,1.19852989,2,1,1,2,1.096736612,2,1,0,2,story
46,1,0.388524115,0.681518444,0.525248025,0.2936409,1,2,0.995437851,2,2,2,1,1.062062288,1,1,0,2,story
47,0,0.431806566,0.664462456,0.538283756,0.268844115,1,2,0.784360919,2,1,1,2,0.674849445,2,0,0,2,story
48,1,0.402134447,0.639726724,0.574869465,0.267301832,1,2,0.751532369,2,2,2,1,0.836899619,1,1,0,2,story
49,1,0.407380861,0.685331286,0.568281162,0.267509424,2,1,0.919168983,2,2,2,1,0.935725195,1,1,0,2,story
50,1,0.359709671,0.648822701,0.585778175,0.263145576,2,1,0.668264629,2,2,2,1,0.626351257,1,0,0,2,story
51,0,0.319733227,0.664016319,0.557009171,0.26579708,2,1,0.623306409,2,1,2,1,1.129826133,2,0,0,2,story
52,1,0.340523826,0.639125684,0.593131072,0.256892015,2,1,0.60869391,2,2,2,1,0.592574657,1,1,0,2,story
53,0,0.321615956,0.644671304,0.633223777,0.274022349,2,1,0.5666383,2,1,2,1,0.772119448,2,1,0,2,story
54,1,0.364095461,0.62585063,0.632219292,0.250214346,1,2,0.709818792,2,2,1,2,0.703951191,1,0,0,2,story
55,1,0.326672592,0.605433982,0.679466278,0.275404897,1,2,0.687547764,2,2,1,2,0.632280635,1,1,0,2,story
56,0,0.30924748,0.578527992,0.640696967,0.254861131,2,1,0.53818717,2,1,2,1,0.656332344,2,1,0,2,story
57,1,0.265372945,0.539742559,0.621927325,0.251147367,2,1,0.570636019,2,2,1,2,0.772174897,1,1,0,2,story
58,0,0.27663931,0.511960853,0.615517556,0.282290593,1,2,0.819092199,2,1,1,2,0.616854489,2,1,0,2,story
59,0,0.270770271,0.529221582,0.666533426,0.289100243,2,1,0.811498762,2,1,1,2,0.855115068,2,0,0,2,story
60,1,0.326254096,0.518815646,0.671641498,0.294230665,1,2,0.78683742,2,2,2,1,0.771797003,1,0,0,2,story
61,1,0.341281929,0.499363053,0.686859396,0.331545907,2,1,0.707875079,2,2,1,2,0.686282392,1,1,0,2,story
62,0,0.362063873,0.492782026,0.724488376,0.312545836,1,2,0.770762466,2,1,1,2,0.690860815,2,1,0,2,story
63,1,0.347260685,0.503363653,0.690551202,0.273259857,2,1,0.586759792,2,2,1,2,0.656908225,1,1,0,2,story
64,1,0.374987384,0.479502715,0.702182474,0.257068542,2,1,0.646105403,2,2,1,2,0.644426276,1,0,0,2,story
65,1,0.366245329,0.44327493,0.695346749,0.271453109,1,2,0.718683929,2,2,1,2,0.530809802,1,1,0,2,story
66,1,0.377303919,0.462962446,0.683775448,0.275424499,2,1,0.587250994,2,2,2,1,0.625109993,2,1,0,2,story
67,1,0.389138339,0.457193173,0.649293366,0.303094272,1,2,0.800472639,2,2,2,1,0.586720014,2,1,0,2,story
68,1,0.401123134,0.481740703,0.701437036,0.270155204,1,2,0.675888804,2,2,2,1,0.922034829,2,0,0,2,story
69,0,0.39185392,0.464236728,0.669745721,0.277512983,2,1,0.66849456,2,1,2,1,0.981082705,2,1,0,2,story
70,1,0.392276108,0.459470722,0.64221642,0.275105664,1,2,0.744111305,2,2,2,1,0.88282849,2,0,0,2,story
71,1,0.360440712,0.511563878,0.638722836,0.251243948,1,2,0.716476836,2,2,1,2,1.097111191,2,0,0,2,story
72,1,0.388992406,0.502157425,0.634287869,0.251842667,2,1,0.608677335,1,1,1,2,0.837913664,2,0,0,2,story
73,0,0.389454074,0.491272694,0.655568642,0.271777886,1,2,0.798214014,1,2,2,1,1.242224246,1,1,0,2,story
74,0,0.369521903,0.489030181,0.656425525,0.292133827,2,1,0.783496645,1,2,2,1,1.149548938,1,0,0,2,story
75,0,0.38120518,0.503719875,0.619855059,0.276599658,1,2,0.841745339,1,2,2,1,1.031135863,1,0,0,2,story
76,1,0.427915528,0.493315246,0.62981058,0.255259826,2,1,0.597929961,1,1,2,1,0.824178699,1,1,0,2,story
77,1,0.437628008,0.51229584,0.661836243,0.260405457,2,1,0.599370117,1,1,2,1,0.882157081,1,0,0,2,story
78,0,0.437803371,0.521006242,0.663558096,0.262591081,2,1,0.516641192,1,2,2,1,0.894130953,2,0,0,2,story
79,1,0.445639708,0.553405534,0.692346573,0.270739019,2,1,0.583118872,1,1,1,2,0.909784619,1,1,0,2,story
80,1,0.462696905,0.570880498,0.665730618,0.26823317,2,1,0.614854725,1,1,2,1,0.774657424,1,0,0,2,story
81,1,0.453548548,0.586701408,0.697868599,0.256746646,2,1,0.495445686,1,1,1,2,0.685934332,1,1,0,2,story
82,1,0.44932862,0.593442532,0.702265741,0.282851618,1,2,0.755655149,1,1,2,1,1.726013081,1,1,0,2,story
83,1,0.413817691,0.592308014,0.705444341,0.26510093,1,2,0.533448429,1,1,1,2,0.604238137,1,0,0,2,story
84,1,0.437102316,0.591980249,0.737881237,0.255991287,1,2,0.476423219,1,1,1,2,0.634761656,1,0,0,2,story
85,1,0.468722742,0.58704664,0.713005229,0.271514488,1,2,0.552165627,1,1,2,1,0.512660349,1,1,0,2,story
86,0,0.453889195,0.599945566,0.685011742,0.256627258,1,2,0.723985593,1,2,2,1,1.341136912,1,1,0,2,story
87,1,0.420577997,0.548303244,0.72779785,0.277973896,1,2,0.464585558,1,1,2,1,0.728983496,1,0,0,2,story
88,1,0.463053305,0.525313477,0.681686354,0.279003254,1,2,0.716315914,1,1,1,2,0.539274444,1,0,0,2,story
89,1,0.457634813,0.536220465,0.674015071,0.264442142,2,1,0.636532694,1,1,1,2,0.707211505,1,0,0,2,story
90,1,0.449948113,0.522252155,0.635282138,0.259450395,1,2,0.58770754,2,2,2,1,0.752979455,1,0,0,2,story
91,0,0.462150923,0.512892387,0.640381875,0.26336502,2,1,0.718313569,2,1,2,1,1.092815737,1,1,0,2,story
92,1,0.461504451,0.510637341,0.663055874,0.28481266,1,2,0.786033115,2,2,2,1,0.592482443,1,1,0,2,story
93,0,0.5075436,0.463177435,0.686492918,0.330248804,1,2,0.689523118,2,1,1,2,0.827071365,1,1,0,2,story
94,1,0.502536863,0.450085191,0.638029645,0.293944427,2,1,0.717292291,2,2,2,1,0.701745604,1,1,0,2,story
95,1,0.506477228,0.485562358,0.633212116,0.336748515,2,1,0.77694317,2,2,2,1,1.036071989,1,1,0,2,story
96,0,0.517150572,0.443112367,0.641119369,0.330781809,1,2,NaN,NaN,NaN,NaN,NaN,NaN,NaN,0,1,2,story
97,0,0.506840754,0.39695466,0.675874757,0.319839718,1,2,0.594083821,2,1,2,1,1.032193303,1,0,0,2,story
98,1,0.491347862,0.409664179,0.658883923,0.320313291,2,1,0.67088397,2,2,2,1,0.602134709,1,0,0,2,story
99,1,0.503280424,0.357854432,0.65634571,0.337650708,1,2,0.570384692,2,2,1,2,0.89958721,1,1,0,2,story
100,1,0.491507797,0.372326216,0.662276874,0.319506279,2,1,0.650259825,2,2,1,2,0.644479615,1,0,0,2,story
101,0,0.513727991,0.379852994,0.656851819,0.365762948,2,1,0.568433446,1,2,2,1,0.982532202,1,1,0,2,story
102,1,0.542841389,0.387795555,0.634752632,0.359149742,1,2,0.70345125,2,2,1,2,0.523129877,1,1,0,2,story
103,1,0.539848575,0.407606751,0.629716857,0.334236228,1,2,0.678690462,2,2,2,1,0.715146071,1,1,0,2,story
104,0,0.559917675,0.424418159,0.585802295,0.30702754,2,1,0.821298087,2,1,2,1,1.105357655,2,1,0,2,story
105,1,0.550990306,0.404292343,0.575128274,0.309670678,1,2,0.578782736,2,2,1,2,0.777040205,1,1,0,2,story
106,1,0.572856205,0.399124394,0.58626814,0.290625245,2,1,0.577427561,2,2,1,2,0.709799807,1,1,0,2,story
107,0,0.56140218,0.398491881,0.605605795,0.299475082,2,1,0.703476865,2,1,2,1,0.767396076,2,1,0,2,story
108,0,0.56576423,0.384892831,0.614432723,0.274693739,1,2,0.675796892,2,1,1,2,0.910790226,2,0,0,2,story
109,1,0.575920852,0.384357662,0.631064849,0.254227501,2,1,0.6608737,2,2,1,2,0.527090229,1,1,0,2,story
110,0,0.60673622,0.405276518,0.641039353,0.264758564,1,2,0.742196823,2,1,1,2,0.695259632,2,0,0,2,story
111,0,0.615793788,0.412754578,0.646164622,0.287996795,2,1,0.689904327,2,1,1,2,0.896364866,2,1,0,2,story
112,1,0.581443901,0.404927329,0.657894828,0.294581623,2,1,0.592977261,2,2,1,2,0.549564669,1,1,0,2,story
113,0,0.598343796,0.373079842,0.636727602,0.318446879,1,2,0.733377491,2,1,2,1,0.73065539,2,1,0,2,story
114,1,0.598784321,0.375956792,0.615113701,0.327863682,2,1,0.543927902,2,2,1,2,0.584161244,1,0,0,2,story
115,1,0.548044126,0.384612553,0.589007707,0.321767161,2,1,0.699499637,1,1,1,2,0.529546841,2,0,0,2,story
116,1,0.510509488,0.390597781,0.617637143,0.3206237,2,1,0.586983696,2,2,1,2,0.724397841,2,0,0,2,story
117,0,0.538842156,0.392482604,0.614167868,0.311809759,1,2,0.569596057,2,1,2,1,0.718653794,2,1,0,2,story
118,1,0.562921272,0.408060265,0.580700115,0.276345781,1,2,1.018888667,2,2,1,2,0.990096107,1,1,0,2,story
119,0,0.577286185,0.423752516,0.574084621,0.257922792,2,1,0.670001917,2,1,2,1,0.724305025,2,1,0,2,story
120,1,0.511358845,0.422784678,0.57181756,0.273116353,1,2,0.566870641,2,2,2,1,0.81431609,1,0,0,2,story
121,1,0.562135289,0.421358934,0.578960562,0.312018025,1,2,0.483465787,2,2,2,1,0.866249376,1,1,0,2,story
122,0,0.544730981,0.414208196,0.561027674,0.30673797,2,1,0.583054684,2,1,2,1,0.689296503,2,1,0,2,story
123,1,0.498159873,0.389101493,0.566257682,0.303179342,1,2,0.827684614,2,2,1,2,0.657175825,1,1,0,2,story
124,1,0.495842674,0.376327936,0.55717536,0.303773554,2,1,0.57372396,2,2,2,1,0.8147199,2,0,0,2,story
125,0,0.483367651,0.36324469,0.549315366,0.304164777,2,1,0.467521318,2,1,1,2,0.930368383,2,0,0,2,story
126,1,0.517795907,0.389616108,0.5591457,0.305702642,2,1,0.602052741,2,2,1,2,0.76785865,1,0,0,2,story
127,1,0.524157322,0.397331811,0.571719781,0.319979181,1,2,0.568686279,2,2,1,2,0.805017912,1,1,0,2,story
128,1,0.465340894,0.406040166,0.555125107,0.310735515,2,1,0.693455143,2,2,1,2,0.698124875,1,1,0,2,story
129,1,0.477617015,0.411180066,0.543772155,0.294901364,1,2,0.742526199,2,2,2,1,0.690915359,1,0,0,2,story
130,0,0.50438439,0.406879916,0.574711881,0.262281751,1,2,0.499226734,2,1,1,2,NaN,NaN,0,1,2,story
131,1,0.505578396,0.383548861,0.557308498,0.250600481,2,1,0.603793042,2,2,2,1,0.869901145,1,0,0,2,story
132,1,0.494916713,0.405268595,0.567722941,0.250195019,1,2,0.708630264,2,2,2,1,0.60196776,1,1,0,2,story
133,1,0.540283304,0.407173821,0.55808149,0.26540545,2,1,1.697673451,2,2,1,2,0.507513579,1,0,0,2,story
134,0,0.508624213,0.394047257,0.569335122,0.271282294,1,2,0.623438702,2,1,1,2,0.640959838,2,1,0,2,story
135,1,0.538610033,0.396162886,0.517785357,0.289187096,1,2,0.52885072,2,2,1,2,0.713998226,1,0,0,2,story
136,1,0.543918723,0.459279944,0.501675882,0.317979151,1,2,0.597805503,2,2,2,1,0.694286269,1,0,0,2,story
137,1,0.586663495,0.48117203,0.490659377,0.336241588,1,2,0.544381737,2,2,2,1,0.777033877,1,1,0,2,story
138,0,0.557176394,0.474327743,0.482391077,0.326281029,2,1,0.52309914,1,2,1,2,0.719701289,1,1,0,2,story
139,1,0.549896715,0.463952164,0.488392182,0.329194125,2,1,0.747836,2,2,1,2,0.583917753,1,1,0,2,story
140,0,0.547996354,0.473343449,0.493381019,0.336768207,1,2,0.630536718,2,1,2,1,0.672303634,2,1,0,2,story
141,1,0.546651668,0.475753939,0.487560444,0.342277256,2,1,0.609953556,2,2,1,2,0.675393986,1,0,0,2,story
142,1,0.537884942,0.491303803,0.501268125,0.320714695,2,1,0.739349661,2,2,2,1,0.721868905,2,0,0,2,story
143,0,0.527551495,0.468373688,0.496677823,0.34719299,2,1,0.585390756,2,1,2,1,1.467436638,2,1,0,2,story
144,0,0.546447662,0.489664151,0.501611605,0.319846032,2,1,0.891782827,1,2,1,2,0.725848544,1,1,0,2,story
145,1,0.571251554,0.52405111,0.46269579,0.365353959,2,1,0.718272585,1,1,2,1,0.563398779,2,1,0,2,story
146,1,0.601775517,0.539007627,0.416851162,0.381418251,1,2,0.518577673,1,1,2,1,0.732754599,2,0,0,2,story
147,0,0.600259782,0.549372308,0.402263462,0.381684504,2,1,0.598372947,2,1,1,2,1.026582152,2,0,0,2,story
148,1,0.625946645,0.57336702,0.45018907,0.34499854,2,1,0.510129002,2,2,2,1,0.778656952,1,0,0,2,story
149,0,0.593915991,0.561593321,0.464680044,0.344485157,2,1,0.600381148,2,1,2,1,0.7229833,2,0,0,2,story
0,1,0.316859983,0.489419432,0.287640823,0.673412446,2,1,1.442192281,2,2,1,2,0.849476357,1,1,0,3,story
1,1,0.341739497,0.515405183,0.253210653,0.726205858,2,1,0.764105715,2,2,1,2,0.618909055,1,0,0,3,story
2,1,0.349449921,0.548200065,0.297290337,0.712553316,1,2,0.908989573,2,2,1,2,0.701196273,2,1,0,3,story
3,1,0.379773084,0.539265635,0.291243829,0.674596812,2,1,0.970746648,2,2,2,1,1.003041235,2,0,0,3,story
4,0,0.383871262,0.531433024,0.297115234,0.677824107,2,1,0.683564826,1,2,2,1,0.484869917,2,0,0,3,story
5,1,0.425815004,0.551048963,0.278115234,0.690102493,2,1,0.722276683,1,1,1,2,1.20200736,2,0,0,3,story
6,1,0.463313438,0.558600403,0.257917735,0.705181923,2,1,0.756254014,2,2,2,1,1.077242903,1,0,0,3,story
7,1,0.480695248,0.593140412,0.271546846,0.690960969,2,1,0.81324462,1,1,2,1,1.013579481,1,0,0,3,story
8,1,0.509930676,0.662842484,0.309500935,0.744670051,1,2,0.891128798,1,1,2,1,0.919025768,2,1,0,3,story
9,1,0.513162554,0.643835154,0.327375718,0.710985875,1,2,0.679371526,1,1,2,1,0.727239633,2,0,0,3,story
10,1,0.509058243,0.619754357,0.322154601,0.701090066,1,2,0.952070719,1,1,1,2,1.320928318,2,1,0,3,story
11,1,0.536559579,0.599657645,0.3637314,0.689008529,2,1,0.767149059,1,1,1,2,0.804858924,2,0,0,3,story
12,0,0.585924373,0.632555692,0.360105623,0.697599151,2,1,0.926191896,1,2,1,2,NaN,NaN,0,1,3,story
13,1,0.574446826,0.639737207,0.39650749,0.709341139,2,1,0.82577781,2,2,2,1,0.712387848,1,0,0,3,story
14,1,0.581372394,0.653105212,0.410594162,0.701311921,1,2,0.979215818,2,2,1,2,1.17215221,2,0,0,3,story
15,1,0.60243542,0.63533804,0.423868077,0.699359829,1,2,0.867824417,1,1,1,2,1.295277015,2,1,0,3,story
16,0,0.561597936,0.622932242,0.439590673,0.741645621,2,1,0.812017819,1,2,1,2,1.31907079,2,0,0,3,story
17,1,0.519152046,0.65711811,0.507413839,0.70242724,2,1,0.82427889,1,1,1,2,1.385963189,2,1,0,3,story
18,1,0.563472096,0.646078632,0.489625308,0.719381436,1,2,0.772102367,1,1,2,1,0.82617499,2,1,0,3,story
19,0,0.563951153,0.651225467,0.508818788,0.737113866,1,2,0.787079815,1,2,1,2,1.399664415,1,1,0,3,story
20,1,0.60468702,0.669545392,0.514337829,0.729703,2,1,1.278314568,1,1,1,2,1.23113776,2,1,0,3,story
21,1,0.576365641,0.642924202,0.528730723,0.749032621,1,2,0.797786516,1,1,1,2,1.06777144,2,1,0,3,story
22,1,0.561694378,0.60721117,0.542560629,0.703302252,2,1,0.838851925,1,1,1,2,0.98834796,2,1,0,3,story
23,1,0.536045566,0.592702352,0.502418877,0.698836003,1,2,0.716439513,1,1,1,2,1.177011194,2,1,0,3,story
24,1,0.544263407,0.596716974,0.485747472,0.73320278,2,1,0.69407354,1,1,1,2,1.042904554,2,0,0,3,story
25,1,0.570804933,0.580705808,0.475910876,0.739625841,2,1,0.744181589,2,2,1,2,1.313977656,1,1,0,3,story
26,1,0.560136774,0.551804627,0.466519139,0.747347206,1,2,0.762667065,2,2,1,2,0.603113438,1,1,0,3,story
27,1,0.56167628,0.570758029,0.455878706,0.734913648,2,1,0.801366567,2,2,2,1,0.659476933,1,0,0,3,story
28,0,0.56824332,0.57279754,0.513219799,0.720424359,2,1,0.714432817,1,2,1,2,0.910282972,1,0,0,3,story
29,0,0.564622192,0.584898021,0.551483085,0.704267895,1,2,0.678305346,1,2,2,1,1.224041545,2,1,0,3,story
30,1,0.536088709,0.618837469,0.51195059,0.698029185,2,1,0.590457599,2,2,2,1,0.580276453,2,0,0,3,story
31,1,0.540664106,0.638075856,0.501453578,0.736922975,1,2,0.882489666,1,1,2,1,1.400183945,2,1,0,3,story
32,1,0.516361312,0.646387031,0.486255778,0.735297273,2,1,0.675757122,1,1,1,2,1.174002505,2,1,0,3,story
33,1,0.447559542,0.635410526,0.49034557,0.697404818,1,2,0.662276786,1,1,1,2,0.720016249,2,1,0,3,story
34,1,0.437005806,0.638709314,0.462674433,0.698668806,2,1,0.784658459,1,1,1,2,0.650250167,2,1,0,3,story
35,1,0.416340857,0.639380996,0.465136312,0.704314495,2,1,0.614476181,1,1,2,1,0.865246962,2,0,0,3,story
36,1,0.427584254,0.596874939,0.473802659,0.686717816,2,1,0.635501142,2,2,2,1,0.588917092,1,1,0,3,story
37,1,0.432746564,0.603313212,0.441470772,0.692652927,1,2,0.845028115,2,2,1,2,0.604392071,1,1,0,3,story
38,1,0.401643463,0.531803651,0.468906255,0.695758477,1,2,0.826686684,2,2,1,2,0.770102601,1,0,0,3,story
39,1,0.387525819,0.538806157,0.485085032,0.679789696,2,1,0.842977421,1,1,2,1,0.659056247,2,0,0,3,story
40,0,0.426816472,0.565847461,0.47622375,0.660669389,2,1,0.734816201,1,2,1,2,1.424910702,2,1,0,3,story
41,1,0.46915642,0.570596305,0.508915069,0.668105957,1,2,1.222390744,2,2,1,2,0.863169448,2,1,0,3,story
42,0,0.470906352,0.550052633,0.464980312,0.667523239,1,2,0.575097736,2,1,1,2,1.347016881,1,0,0,3,story
43,1,0.508483251,0.546710965,0.439242424,0.676939296,1,2,0.635896213,2,2,2,1,0.727799242,2,1,0,3,story
44,1,0.504296853,0.573225409,0.459593668,0.68437317,1,2,0.713324146,2,2,1,2,0.89396421,2,1,0,3,story
45,0,0.484515282,0.554934338,0.449659574,0.696834399,2,1,0.80227514,2,1,2,1,1.34423963,2,1,0,3,story
46,1,0.456760361,0.538542589,0.460033812,0.734982948,1,2,0.623445292,2,2,2,1,0.696521113,2,0,0,3,story
47,1,0.479958703,0.614984771,0.462472149,0.736967703,1,2,0.620463122,1,1,2,1,1.053520549,1,1,0,3,story
48,1,0.476816683,0.645331611,0.455873546,0.740997639,1,2,0.782435694,1,1,1,2,0.731533585,1,1,0,3,story
49,1,0.505540308,0.625375795,0.477400115,0.72470429,2,1,0.812458093,1,1,1,2,0.80512351,1,1,0,3,story
50,1,0.514119912,0.608895516,0.438642506,0.723858107,1,2,1.066130282,1,1,2,1,0.747808048,2,1,0,3,story
51,0,0.515502815,0.585935807,0.38272983,0.73222473,1,2,0.590721281,1,2,2,1,0.954554755,1,0,0,3,story
52,0,0.464948576,0.585425101,0.407307438,0.733064537,1,2,0.653122343,1,2,1,2,0.950349401,2,1,0,3,story
53,1,0.420230597,0.563896408,0.439105045,0.719203633,2,1,0.74103217,2,2,1,2,0.594179284,2,1,0,3,story
54,0,0.44646292,0.589715369,0.410229164,0.748164775,2,1,0.533948552,2,1,1,2,1.274566665,2,1,0,3,story
55,0,0.423543541,0.591206712,0.391775899,0.731966228,1,2,1.187828793,1,2,2,1,1.235200273,2,1,0,3,story
56,1,0.396675784,0.596557263,0.401370893,0.727838926,1,2,0.871751323,2,2,1,2,0.857317813,2,0,0,3,story
57,1,0.399403453,0.598589283,0.345133239,0.700311894,2,1,0.75319078,1,1,1,2,1.092203476,2,1,0,3,story
58,1,0.401362942,0.605362265,0.34859373,0.703981686,1,2,0.621180036,1,1,2,1,0.855044119,2,0,0,3,story
59,1,0.428851791,0.602738106,0.349548364,0.730241321,2,1,0.726188822,2,2,1,2,0.860775214,2,1,0,3,story
60,1,0.417197576,0.590755276,0.361650069,0.711286627,1,2,0.676342044,2,2,2,1,0.698571807,2,1,0,3,story
61,0,0.386433777,0.573188877,0.354471509,0.718770858,2,1,0.586198001,2,1,1,2,0.972956757,2,1,0,3,story
62,1,0.402296607,0.581577757,0.371455541,0.707230477,1,2,0.809317413,2,2,2,1,1.614600338,2,0,0,3,story
63,0,0.421128632,0.583918062,0.384685323,0.72246621,2,1,1.028012991,1,2,2,1,0.934270214,1,0,0,3,story
64,1,0.428980833,0.61343162,0.378839983,0.71632547,1,2,0.786440649,1,1,2,1,0.710953417,2,1,0,3,story
65,0,0.428046546,0.652469879,0.39915219,0.686523788,1,2,0.681491832,1,2,1,2,1.352022322,2,0,0,3,story
66,0,0.47322497,0.655365369,0.484422222,0.674420983,1,2,0.817800143,1,2,2,1,1.497597479,1,1,0,3,story
67,1,0.481490759,0.633592374,0.460997518,0.672281357,2,1,0.696286059,2,2,2,1,0.722021137,1,0,0,3,story
68,1,0.441573983,0.620231543,0.41127836,0.697622178,1,2,0.897534918,1,1,1,2,1.144380602,2,0,0,3,story
69,1,0.442034313,0.654953006,0.353589289,0.736953585,1,2,0.714773343,1,1,1,2,0.685137879,1,1,0,3,story
70,1,0.473208394,0.691818589,0.345825603,0.698159699,1,2,0.737057952,1,1,2,1,0.84722406,1,1,0,3,story
71,1,0.452933966,0.657781729,0.290612299,0.707929101,2,1,0.67360427,1,1,1,2,0.772904563,1,1,0,3,story
72,0,0.489673656,0.659855345,0.287230012,0.701668838,1,2,0.891563045,1,2,2,1,1.113708791,1,0,0,3,story
73,1,0.470028339,0.632183762,0.287877111,0.670536225,2,1,0.838567751,1,1,2,1,0.694263391,1,0,0,3,story
74,0,0.477733866,0.616305376,0.313665267,0.698146497,2,1,0.603068839,2,1,2,1,1.705117754,1,1,0,3,story
75,1,0.466113251,0.614333086,0.338984832,0.708459289,1,2,0.830474366,1,1,1,2,0.892369159,1,0,0,3,story
76,1,0.455298923,0.586515266,0.340150959,0.679513782,1,2,0.843548481,2,2,1,2,0.798113482,2,0,0,3,story
77,1,0.448407457,0.554593735,0.336603009,0.643526678,2,1,0.568314926,2,2,1,2,1.266752933,1,0,0,3,story
78,0,0.435703418,0.560766421,0.354189606,0.649134553,1,2,0.871321596,1,2,1,2,1.375884804,2,1,0,3,story
79,1,0.464841406,0.538519699,0.369993325,0.619087844,1,2,0.863243279,2,2,2,1,1.150873511,2,0,0,3,story
80,1,0.479171769,0.588233827,0.332449957,0.699170965,1,2,0.752165885,1,1,2,1,0.62973931,1,0,0,3,story
81,1,0.508464118,0.555940971,0.374502672,0.705129469,2,1,0.851104858,1,1,1,2,0.877078908,2,1,0,3,story
82,1,0.502224625,0.552499259,0.372707587,0.725571212,2,1,0.7604443,1,1,1,2,0.830135346,2,1,0,3,story
83,1,0.551801256,0.556477981,0.389446652,0.73452416,1,2,0.676450832,1,1,2,1,0.814695625,2,1,0,3,story
84,1,0.507495581,0.550969896,0.382830806,0.727195227,2,1,0.80051073,1,1,1,2,1.023522257,2,1,0,3,story
85,1,0.502538968,0.572705836,0.401572354,0.732640328,1,2,0.737270706,1,1,2,1,0.745102518,2,1,0,3,story
86,1,0.464930775,0.603301233,0.376047473,0.7311189,2,1,0.805198848,1,1,1,2,0.892265193,2,1,0,3,story
87,1,0.476709405,0.647104015,0.36793633,0.696987438,2,1,0.800344083,1,1,2,1,0.644357247,2,1,0,3,story
88,1,0.443337762,0.661310699,0.364593307,0.659816145,1,2,0.791221282,1,1,1,2,0.967213609,2,1,0,3,story
89,1,0.417424523,0.622304856,0.324769051,0.673684075,2,1,0.924277714,1,1,1,2,0.888089974,2,0,0,3,story
90,1,0.405979964,0.67381706,0.345140641,0.672904216,1,2,0.825713923,2,2,1,2,0.544165256,1,0,0,3,story
91,1,0.405625397,0.694361683,0.32707402,0.70726704,2,1,0.675037194,2,2,2,1,1.0403274,2,1,0,3,story
92,1,0.438142298,0.710017453,0.352155251,0.706027756,1,2,0.808177402,2,2,2,1,0.90220586,2,1,0,3,story
93,1,0.43603929,0.716533076,0.355093642,0.719804615,2,1,0.861339644,2,2,1,2,1.273397724,1,1,0,3,story
94,1,0.406085046,0.742158088,0.348093922,0.736030476,1,2,0.855470531,2,2,2,1,0.951434567,1,1,0,3,story
95,1,0.406906543,0.749376113,0.378129903,0.72282771,2,1,0.695342228,2,2,2,1,0.741272949,1,1,0,3,story
96,0,0.397549885,0.748253758,0.346205719,0.691707505,2,1,0.880620084,2,1,1,2,1.397710455,1,0,0,3,story
97,0,0.443185247,0.708261416,0.345659291,0.663364515,2,1,0.651272048,2,1,2,1,1.261967177,1,0,0,3,story
98,1,0.447166829,0.697309586,0.367851868,0.644657634,2,1,0.790174992,1,1,2,1,1.040692939,2,0,0,3,story
99,1,0.46413245,0.700963079,0.385294071,0.633510513,2,1,0.675688414,2,2,2,1,1.052918148,1,0,0,3,story
100,1,0.455395609,0.665367183,0.363085421,0.629639545,1,2,NaN,NaN,NaN,NaN,NaN,NaN,NaN,0,1,3,story
101,1,0.405602736,0.63818729,0.361466101,0.619090967,2,1,0.659892797,2,2,1,2,0.54097214,1,1,0,3,story
102,1,0.367299574,0.610822875,0.36354802,0.615310413,2,1,0.634634457,2,2,1,2,0.523474192,1,0,0,3,story
103,1,0.370093732,0.568399479,0.369528085,0.642886546,1,2,0.817343898,2,2,2,1,1.034357334,2,1,0,3,story
104,0,0.387689689,0.5698084,0.387408056,0.615418537,1,2,0.547838123,2,1,2,1,0.90922312,2,0,0,3,story
105,1,0.424945931,0.579990466,0.398940411,0.610946253,1,2,0.66151497,2,2,1,2,1.205245377,1,1,0,3,story
106,1,0.460525011,0.614627655,0.406098744,0.605899694,2,1,0.712911597,2,2,1,2,0.515281361,1,0,0,3,story
107,1,0.431712147,0.62672111,0.394323499,0.581762312,1,2,0.828676807,1,1,2,1,0.653049718,1,1,0,3,story
108,1,0.428507517,0.584532156,0.423154272,0.592411322,1,2,0.600418757,1,1,1,2,0.974330918,1,0,0,3,story
109,1,0.438469611,0.540894326,0.453592241,0.591367327,1,2,0.63713115,1,1,2,1,0.76497903,2,0,0,3,story
110,1,0.457652174,0.512548693,0.444133469,0.564387457,2,1,0.732318905,2,2,1,2,0.811111054,2,1,0,3,story
111,1,0.467372053,0.500590971,0.397368393,0.520999373,2,1,0.619954442,2,2,1,2,0.917475317,2,0,0,3,story
112,1,0.482870899,0.504580514,0.399418719,0.527185546,1,2,0.913690649,2,2,1,2,0.546273207,1,1,0,3,story
113,1,0.466026627,0.460162746,0.416340939,0.597166307,2,1,0.591732313,2,2,2,1,1.038950527,1,1,0,3,story
114,1,0.458823338,0.455118166,0.418545732,0.617056846,2,1,0.727390309,2,2,1,2,0.486848588,1,1,0,3,story
115,1,0.448336074,0.500370375,0.4022112,0.591802244,1,2,0.642598863,2,2,1,2,0.652534709,1,1,0,3,story
116,1,0.415449271,0.503179439,0.43264321,0.581294259,2,1,0.600085162,2,2,2,1,0.689265484,1,0,0,3,story
117,0,0.418866227,0.499874434,0.395627779,0.59681505,2,1,0.824429264,2,1,1,2,1.031599972,1,0,0,3,story
118,0,0.402612442,0.517652037,0.393363644,0.598509503,2,1,0.67600212,1,2,2,1,1.274343062,2,1,0,3,story
119,1,0.399564792,0.538228024,0.409985793,0.604261156,1,2,0.830254379,2,2,2,1,1.06020572,2,0,0,3,story
120,0,0.410786224,0.575869962,0.427129327,0.599452452,1,2,0.580406336,2,1,2,1,1.206238328,1,1,0,3,story
121,1,0.450256958,0.586233034,0.492861555,0.583054698,2,1,0.767957283,1,1,2,1,0.701116415,1,1,0,3,story
122,1,0.486433905,0.611306074,0.508149253,0.531456436,2,1,0.634430442,1,1,1,2,0.821823783,1,1,0,3,story
123,1,0.496692353,0.661282195,0.518465933,0.487534535,1,2,0.854907005,1,1,1,2,0.952669805,1,1,0,3,story
124,1,0.518161656,0.66800274,0.503087869,0.508171988,1,2,0.803906052,1,1,1,2,0.657425636,1,1,0,3,story
125,1,0.516999778,0.660198141,0.528688319,0.519536829,2,1,0.751379962,1,1,2,1,0.780998551,1,0,0,3,story
126,0,0.541591111,0.619734436,0.519050018,0.532191055,2,1,0.712369466,2,1,1,2,0.775661021,1,0,0,3,story
127,0,0.581177421,0.594371677,0.54824207,0.578801585,2,1,0.717039503,2,1,1,2,0.769191014,2,1,0,3,story
128,1,0.604449936,0.602994962,0.566247462,0.521968452,2,1,0.640633151,1,1,2,1,0.786421966,2,1,0,3,story
129,1,0.624488763,0.644598358,0.560137595,0.507017059,2,1,0.677452523,1,1,1,2,1.102274326,2,1,0,3,story
130,0,0.620422899,0.615934625,0.55301502,0.510414762,1,2,0.713178594,1,2,2,1,0.996300313,2,1,0,3,story
131,1,0.616164529,0.6426556,0.535463286,0.529297304,2,1,0.684004196,2,2,2,1,1.150023701,2,1,0,3,story
132,1,0.55470371,0.638854787,0.55006454,0.545988641,1,2,0.926679783,2,2,2,1,0.61856672,2,0,0,3,story
133,0,0.569723478,0.647732945,0.525982706,0.522322655,2,1,0.719221887,1,2,2,1,1.478844102,1,1,0,3,story
134,1,0.597986057,0.66873989,0.522692336,0.515850342,1,2,0.754149679,2,2,1,2,0.610191271,1,0,0,3,story
135,1,0.573100682,0.637246862,0.501321337,0.539350139,2,1,0.69458433,1,1,1,2,0.769253092,2,0,0,3,story
136,1,0.570834291,0.641443883,0.48356037,0.536071109,2,1,0.807081388,1,1,2,1,0.733068968,1,0,0,3,story
137,0,0.590621871,0.654368644,0.507692556,0.544565764,2,1,0.749622784,1,2,2,1,1.207764671,1,0,0,3,story
138,1,0.602798813,0.668754701,0.506311071,0.560725707,1,2,0.677218072,1,1,2,1,1.033286333,2,1,0,3,story
139,1,0.622383357,0.672085665,0.535634017,0.568223605,2,1,0.726899408,1,1,1,2,0.941137703,2,1,0,3,story
140,1,0.606175448,0.635197843,0.512236703,0.583724255,1,2,0.797691892,1,1,1,2,0.921338638,2,1,0,3,story
141,0,0.599715388,0.65035248,0.484238309,0.575539662,2,1,0.726530856,1,2,1,2,1.140122813,1,0,0,3,story
142,1,0.668951474,0.667986793,0.460230965,0.559023148,2,1,0.776152826,1,1,2,1,0.774814526,2,1,0,3,story
143,1,0.705889966,0.667732019,0.477901054,0.508520978,1,2,0.674241929,1,1,2,1,1.360371855,2,1,0,3,story
144,1,0.702089592,0.684917788,0.485878314,0.561763954,1,2,0.655830887,1,1,2,1,0.683041379,2,0,0,3,story
145,0,0.6943969,0.680253189,0.456468855,0.55211044,1,2,0.943195629,2,1,1,2,1.451254208,1,1,0,3,story
146,1,0.69785536,0.657904853,0.445594049,0.593918233,1,2,0.653029829,1,1,2,1,0.637323111,1,1,0,3,story
147,0,0.735575305,0.690957408,0.454084471,0.610798622,2,1,0.859926308,1,2,1,2,0.993803921,1,0,0,3,story
148,1,0.749355867,0.688661589,0.455308753,0.585770264,1,2,0.897496345,1,1,1,2,0.716527206,1,1,0,3,story
149,0,0.730723337,0.655360442,0.499345996,0.593951621,2,1,0.837681779,1,2,2,1,1.160176821,2,1,0,3,story
0,1,0.608689086,0.713982385,0.304233008,0.353242338,2,1,0.890290373,1,1,2,1,0.920449604,1,0,0,5,abstract
1,1,0.620170672,0.734330941,0.283724979,0.345444015,2,1,0.693098786,1,1,2,1,0.720309898,2,1,0,5,abstract
2,1,0.620630993,0.73139087,0.319306301,0.317142335,1,2,0.730403356,1,1,1,2,0.845770551,2,1,0,5,abstract
3,1,0.61234545,0.744586761,0.324581084,0.328711241,1,2,0.646905258,1,1,1,2,0.652243093,2,1,0,5,abstract
4,1,0.595429382,0.740613289,0.366942619,0.326253369,2,1,0.718873658,1,1,2,1,0.761169508,2,1,0,5,abstract
5,1,0.564016272,0.746142341,0.361937965,0.374830106,1,2,0.6106292,1,1,1,2,0.609719722,2,1,0,5,abstract
6,0,0.554059839,0.744312693,0.369856032,0.323931187,2,1,0.645881267,1,2,1,2,1.393243163,1,0,0,5,abstract
7,1,0.54362136,0.719233607,0.371165248,0.312252407,1,2,0.603936792,1,1,1,2,0.882612546,2,1,0,5,abstract
8,1,0.525227748,0.683495384,0.389071301,0.280712108,1,2,0.650315349,1,1,1,2,0.643829969,2,0,0,5,abstract
9,1,0.533850037,0.647070832,0.350475181,0.306858246,1,2,0.669898357,2,2,2,1,1.078928106,2,0,0,5,abstract
10,1,0.521893988,0.688654094,0.416508741,0.331132848,2,1,0.752152476,1,1,2,1,0.836407869,2,1,0,5,abstract
11,1,0.518833577,0.662087786,0.373394769,0.298130003,1,2,0.639928375,1,1,1,2,0.844308093,2,1,0,5,abstract
12,1,0.5431049,0.665836598,0.326747105,0.294032194,1,2,0.546049933,1,1,2,1,0.700620512,2,1,0,5,abstract
13,1,0.564194181,0.646348541,0.311076191,0.304366479,1,2,0.542933962,1,1,1,2,0.577063796,2,1,0,5,abstract
14,1,0.529302805,0.625549025,0.314263013,0.332926104,2,1,0.708339925,1,1,1,2,0.740879228,2,1,0,5,abstract
15,0,0.491262024,0.66378474,0.318593458,0.354999772,1,2,0.675910013,1,2,1,2,1.210555912,2,1,0,5,abstract
16,1,0.49469341,0.633570319,0.344286755,0.363252524,2,1,0.665831622,1,1,2,1,0.634391649,2,0,0,5,abstract
17,1,0.513310625,0.623734656,0.357972855,0.384504334,1,2,0.999689307,2,2,1,2,0.674897473,2,0,0,5,abstract
18,1,0.520983675,0.656229548,0.330528653,0.381193257,1,2,0.671136308,1,1,2,1,0.644341664,2,1,0,5,abstract
19,0,0.540874626,0.635451907,0.30393844,0.329583089,2,1,0.631541167,1,2,2,1,1.051376768,2,0,0,5,abstract
20,1,0.510734716,0.614854712,0.327786497,0.305629262,2,1,0.614198706,1,1,2,1,0.802983799,2,1,0,5,abstract
21,1,0.50632269,0.633102772,0.32307364,0.316117215,2,1,0.631363672,1,1,1,2,0.628075327,2,1,0,5,abstract
22,1,0.503610666,0.652260096,0.321736923,0.293574691,1,2,0.708769351,1,1,2,1,0.673828881,2,1,0,5,abstract
23,1,0.474143376,0.651183411,0.360609995,0.293839898,2,1,0.677554185,1,1,2,1,0.591327654,2,0,0,5,abstract
24,1,0.491352236,0.608116239,0.35002572,0.295400951,1,2,0.629107455,1,1,1,2,0.674483115,2,1,0,5,abstract
25,1,0.482796817,0.589830321,0.376816906,0.262838036,2,1,0.639383833,1,1,1,2,0.67883312,2,1,0,5,abstract
26,1,0.40870497,0.569175716,0.380610378,0.274336633,1,2,0.709397066,1,1,2,1,0.613661698,2,1,0,5,abstract
27,0,0.3748938,0.56474748,0.388062284,0.292646964,2,1,0.631384465,1,2,1,2,0.936996197,2,0,0,5,abstract
28,0,0.358505605,0.602822873,0.386812262,0.262998743,2,1,0.863749165,1,2,2,1,1.147029867,1,1,0,5,abstract
29,0,0.381153661,0.554896298,0.369987731,0.264622988,1,2,0.718420727,2,1,1,2,0.98480346,2,1,0,5,abstract
30,1,0.384472193,0.548530222,0.383891238,0.256634066,1,2,0.795766136,2,2,1,2,0.966913142,1,1,0,5,abstract
31,1,0.391987782,0.50374375,0.349287482,0.282564107,2,1,0.893392483,1,1,1,2,0.61619124,2,0,0,5,abstract
32,0,0.351435754,0.522493951,0.373846975,0.265956619,2,1,0.708872413,2,1,1,2,1.114260031,2,1,0,5,abstract
33,0,0.377738959,0.481629233,0.351786865,0.278133917,1,2,0.920859442,2,1,1,2,0.973003149,2,1,0,5,abstract
34,1,0.355973544,0.503091711,0.353300416,0.289313543,1,2,0.899148894,2,2,1,2,1.124673222,1,1,0,5,abstract
35,0,0.358652197,0.520518347,0.325990068,0.27676507,2,1,0.921407298,2,1,2,1,1.229024523,2,1,0,5,abstract
36,1,0.340849459,0.505162008,0.305692326,0.276567949,2,1,0.694381638,2,2,1,2,0.663998202,1,0,0,5,abstract
37,0,0.378081511,0.518849044,0.312161529,0.288139351,2,1,0.712191495,1,2,2,1,1.052765696,1,1,0,5,abstract
38,1,0.32080742,0.522914097,0.302098914,0.267563534,2,1,0.603286778,1,1,2,1,1.07875061,2,1,0,5,abstract
39,0,0.30551202,0.507738727,0.323216333,0.284529355,2,1,0.694590776,1,2,2,1,0.959341391,1,1,0,5,abstract
40,0,0.327806465,0.538390388,0.359047487,0.29866802,1,2,0.791497194,1,2,2,1,0.937259578,1,0,0,5,abstract
41,1,0.306927822,0.516180666,0.361464039,0.271388313,2,1,0.928818429,1,1,2,1,0.673734558,2,1,0,5,abstract
42,0,0.347194556,0.53951861,0.352438887,0.283325311,1,2,0.627113414,1,2,1,2,1.206774858,1,0,0,5,abstract
43,0,0.379991924,0.531161356,0.34463735,0.293612289,1,2,0.569645735,1,2,1,2,0.914972545,2,1,0,5,abstract
44,0,0.370873941,0.546877174,0.294568638,0.299981865,2,1,0.733356296,1,2,1,2,1.008329047,2,0,0,5,abstract
45,1,0.404500879,0.582674843,0.294308569,0.264965508,1,2,0.890658323,1,1,1,2,1.175620565,2,0,0,5,abstract
46,1,0.34028658,0.584301047,0.305079206,0.255672742,1,2,1.198550983,1,1,1,2,0.974023223,1,1,0,5,abstract
47,1,0.385681999,0.615848985,0.268466528,0.252051871,1,2,0.530915171,1,1,1,2,0.721748548,1,1,0,5,abstract
48,1,0.39752964,0.596467469,0.265905986,0.270164339,1,2,0.648918887,1,1,2,1,0.781171093,1,0,0,5,abstract
49,0,0.422492221,0.564066129,0.265580653,0.260162896,2,1,0.749681999,1,2,2,1,1.625196217,2,1,0,5,abstract
50,1,0.427479404,0.538273937,0.260548492,0.255569453,1,2,0.76485654,1,1,1,2,1.02052684,1,1,0,5,abstract
51,1,0.412066596,0.544299876,0.310892384,0.260231828,1,2,0.534986124,1,1,1,2,0.666044979,1,0,0,5,abstract
52,0,0.396091573,0.572325781,0.280604468,0.268638539,2,1,0.812778015,1,2,1,2,1.390144971,2,0,0,5,abstract
53,1,0.384665878,0.541105397,0.258404899,0.283746383,1,2,0.751421097,1,1,1,2,0.658930077,1,1,0,5,abstract
54,1,0.389275523,0.53349262,0.258771579,0.275323325,1,2,0.933008416,1,1,1,2,0.757179015,1,1,0,5,abstract
55,1,0.358324339,0.528152365,0.259614399,0.295346377,1,2,0.565678747,1,1,1,2,0.706737942,1,0,0,5,abstract
56,1,0.326153584,0.520187665,0.257528111,0.265490714,1,2,0.673831292,2,2,1,2,0.822974536,2,0,0,5,abstract
57,1,0.341934206,0.512521497,0.287009347,0.288786408,1,2,0.545173905,2,2,2,1,0.904998724,1,0,0,5,abstract
58,1,0.32874057,0.476592561,0.258836186,0.308594401,2,1,0.765188931,1,1,1,2,1.560572049,2,1,0,5,abstract
59,1,0.350204681,0.527905475,0.262779658,0.326670443,2,1,0.650121279,1,1,2,1,0.767648861,2,0,0,5,abstract
60,1,0.375166096,0.52031621,0.302899936,0.256390164,1,2,1.035019424,1,1,2,1,1.012245106,1,0,0,5,abstract
61,1,0.40149414,0.485506409,0.313445162,0.25323749,2,1,0.822776548,1,1,2,1,0.755108431,1,1,0,5,abstract
62,1,0.440820776,0.479407046,0.313906117,0.253931867,2,1,0.671331885,1,1,1,2,0.872665244,1,0,0,5,abstract
63,1,0.414438307,0.462778204,0.334757345,0.262042307,1,2,0.775954101,2,2,1,2,1.125931665,1,0,0,5,abstract
64,1,0.433392785,0.460463644,0.305394666,0.263770186,1,2,0.702634443,2,2,1,2,0.522911282,2,0,0,5,abstract
65,0,0.398556126,0.468469027,0.362516807,0.288116157,2,1,0.649584572,1,2,2,1,1.720763431,1,0,0,5,abstract
66,1,0.403889757,0.486044004,0.340397917,0.254888107,1,2,0.814627408,1,1,2,1,1.20300405,2,0,0,5,abstract
67,1,0.436833842,0.51886484,0.350377768,0.25262555,2,1,0.737700877,1,1,2,1,0.54688769,1,0,0,5,abstract
68,1,0.420790467,0.519655945,0.329678159,0.270125203,1,2,0.825821099,1,1,2,1,0.667891961,1,1,0,5,abstract
69,1,0.44132853,0.479029875,0.354337528,0.283817838,1,2,0.702699534,1,1,1,2,1.033897192,1,0,0,5,abstract
70,0,0.44593408,0.457836261,0.328106907,0.298327573,1,2,0.562972914,1,2,1,2,1.553951664,2,0,0,5,abstract
71,1,0.463137412,0.435256224,0.34098134,0.262535442,2,1,0.887081886,1,1,1,2,1.450997427,1,1,0,5,abstract
72,1,0.509276806,0.482416379,0.401173832,0.250610733,2,1,0.844747463,1,1,2,1,1.635168532,1,1,0,5,abstract
73,1,0.486981954,0.503239689,0.416338605,0.270949458,2,1,0.62832575,1,1,2,1,1.014973841,1,1,0,5,abstract
74,1,0.50625448,0.44677246,0.407535091,0.271589954,1,2,0.617804976,1,1,2,1,0.817917259,1,0,0,5,abstract
75,1,0.467926619,0.444233905,0.447598586,0.263441463,1,2,0.738692021,1,1,2,1,0.802746636,1,1,0,5,abstract
76,0,0.468698704,0.461819627,0.442327324,0.250238529,1,2,0.627586837,1,2,2,1,1.78319768,2,0,0,5,abstract
77,1,0.421493521,0.475032276,0.470692786,0.260677462,2,1,0.697671791,1,1,2,1,0.842667236,1,0,0,5,abstract
78,1,0.423351921,0.488002674,0.489531955,0.27041336,2,1,0.800316539,1,1,2,1,0.806103688,1,1,0,5,abstract
79,1,0.424899034,0.44679712,0.53783099,0.250841579,2,1,0.653380091,1,1,2,1,0.722111978,1,0,0,5,abstract
80,1,0.394765402,0.429644709,0.518945318,0.275810148,1,2,0.743397018,1,1,2,1,1.082992731,1,1,0,5,abstract
81,1,0.376353302,0.362254532,0.498317117,0.265016082,1,2,0.714019793,1,1,1,2,0.990112666,1,0,0,5,abstract
82,0,0.369832879,0.371145931,0.512644149,0.264722564,1,2,0.652329581,1,2,1,2,1.552140242,1,0,0,5,abstract
83,1,0.377281024,0.385951643,0.489648394,0.25591974,1,2,0.668918363,1,1,1,2,1.003711743,1,0,0,5,abstract
84,1,0.378797534,0.402666991,0.49630009,0.307176197,1,2,0.672432118,1,1,1,2,0.515202717,2,0,0,5,abstract
85,1,0.35320406,0.383272294,0.489662478,0.304199219,1,2,0.648457217,1,1,1,2,1.017131817,1,0,0,5,abstract
86,1,0.395444836,0.401549208,0.475117489,0.273566874,2,1,0.740709266,1,1,2,1,0.745665289,1,1,0,5,abstract
87,0,0.387632139,0.405987346,0.48261976,0.252413138,2,1,0.859714976,1,2,1,2,1.321826538,1,0,0,5,abstract
88,0,0.373617077,0.408879846,0.493018768,0.25176477,2,1,0.925216378,1,2,2,1,0.995529455,2,0,0,5,abstract
89,1,0.368449275,0.422791351,0.450464736,0.256072332,1,2,0.790721818,1,1,2,1,1.290357032,2,0,0,5,abstract
90,1,0.380844472,0.389890324,0.423012321,0.278248533,2,1,0.676832148,1,1,2,1,0.703311579,1,0,0,5,abstract
91,1,0.383247403,0.393421875,0.44852012,0.310017537,2,1,0.538591792,1,1,2,1,0.937036277,1,1,0,5,abstract
92,0,0.407725214,0.357305329,0.464836983,0.312452452,2,1,0.643169407,1,2,2,1,1.773878695,2,0,0,5,abstract
93,1,0.421897752,0.386806266,0.452004562,0.330872312,1,2,0.58247727,1,1,2,1,1.283600436,1,0,0,5,abstract
94,1,0.452479975,0.406074298,0.480271555,0.302209047,1,2,0.703147041,1,1,2,1,0.874274761,1,1,0,5,abstract
95,1,0.437138251,0.391163997,0.436706062,0.304470836,2,1,0.661728424,1,1,2,1,0.808073923,1,1,0,5,abstract
96,1,0.412984429,0.370246582,0.450724962,0.320023663,1,2,0.763225326,1,1,2,1,1.241645715,1,1,0,5,abstract
97,1,0.451212573,0.346754642,0.437696582,0.296695565,2,1,0.654520705,1,1,1,2,0.863760014,1,1,0,5,abstract
98,1,0.446713511,0.365734753,0.395534158,0.295138675,1,2,0.725599516,1,1,2,1,0.881090723,1,0,0,5,abstract
99,1,0.449881753,0.363404786,0.419624007,0.278712431,2,1,1.415801713,1,1,2,1,0.76924994,1,1,0,5,abstract
100,0,0.444873212,0.369816107,0.464180648,0.270196053,2,1,0.810653188,1,2,1,2,1.719923264,2,1,0,5,abstract
101,1,0.459174402,0.410467104,0.443150289,0.281342798,1,2,0.730333442,1,1,2,1,1.259916942,1,1,0,5,abstract
102,1,0.451852159,0.423518611,0.4820043,0.295917363,2,1,0.616548944,1,1,2,1,0.651810051,1,0,0,5,abstract
103,1,0.466882247,0.387923533,0.474479967,0.303518273,1,2,0.612831475,2,2,2,1,0.915628286,2,1,0,5,abstract
104,1,0.483632377,0.394263458,0.453671973,0.286152038,1,2,0.593165897,2,2,2,1,0.618049673,2,0,0,5,abstract
105,0,0.508578073,0.426911185,0.463893768,0.264541141,1,2,0.695768155,2,1,1,2,1.72841052,2,1,0,5,abstract
106,1,0.492821811,0.460934275,0.412653204,0.266876502,1,2,0.657339545,2,2,1,2,0.586845657,2,0,0,5,abstract
107,1,0.485825407,0.464372197,0.42593876,0.281883645,1,2,0.695188656,1,1,2,1,0.861480593,2,1,0,5,abstract
108,1,0.468126288,0.439611339,0.441588735,0.273877875,1,2,0.893051654,1,1,2,1,0.75196805,2,0,0,5,abstract
109,1,0.454256732,0.396387686,0.458089758,0.267521136,1,2,0.497468198,2,2,1,2,0.905808756,1,1,0,5,abstract
110,1,0.472397258,0.380666024,0.46816514,0.262712143,2,1,0.95690587,2,2,2,1,0.963251423,1,0,0,5,abstract
111,1,0.475402128,0.391500541,0.476780453,0.253723477,1,2,0.721327259,2,2,2,1,1.305023193,2,1,0,5,abstract
112,0,0.467529946,0.366748868,0.465541074,0.255863745,2,1,0.751414467,2,1,1,2,1.880944567,2,1,0,5,abstract
113,0,0.485836655,0.326708039,0.436576,0.299174656,2,1,0.754969809,2,1,1,2,0.892005061,2,0,0,5,abstract
114,0,0.461580658,0.299515259,0.472293105,0.339494134,2,1,0.817167196,2,1,1,2,1.347100866,1,0,0,5,abstract
115,1,0.456416682,0.312301255,0.495268817,0.341774122,2,1,0.730129729,2,2,1,2,0.811046451,2,0,0,5,abstract
116,0,0.474093139,0.312210743,0.473495191,0.272291549,2,1,0.692887237,2,1,1,2,1.475858301,1,0,0,5,abstract
117,1,0.456815819,0.318709633,0.485134225,0.314157939,2,1,0.724103307,2,2,1,2,0.790186618,2,0,0,5,abstract
118,1,0.422566738,0.296020275,0.451838355,0.320106912,2,1,0.641791027,1,1,2,1,0.965063147,2,1,0,5,abstract
119,1,0.434917638,0.280859787,0.431693573,0.327670941,1,2,0.88967863,1,1,2,1,0.750036991,2,0,0,5,abstract
120,0,0.447174963,0.286000018,0.4319601,0.311116096,1,2,0.607672643,1,2,2,1,1.600781343,2,0,0,5,abstract
121,0,0.432607976,0.306344151,0.420927746,0.279184728,2,1,0.849429859,1,2,1,2,1.538222938,1,0,0,5,abstract
122,0,0.41684721,0.262866641,0.392413552,0.30312295,2,1,0.979221531,1,2,1,2,1.166436886,1,1,0,5,abstract
123,1,0.425445401,0.300920435,0.388789905,0.308870383,1,2,0.827526144,1,1,1,2,0.661935754,2,0,0,5,abstract
124,1,0.416328999,0.30870417,0.380821976,0.319295824,1,2,0.74963981,2,2,2,1,1.022171314,1,0,0,5,abstract
125,1,0.390318893,0.275943717,0.412610273,0.332654645,1,2,0.766514575,2,2,2,1,0.684774259,1,0,0,5,abstract
126,0,0.348633755,0.280242768,0.417510455,0.304287255,2,1,0.804568304,2,1,2,1,1.504058749,2,1,0,5,abstract
127,0,0.3807176,0.263155213,0.39422561,0.278887496,1,2,0.676380724,1,2,1,2,1.193953267,1,0,0,5,abstract
128,0,0.339113625,0.258692956,0.428257994,0.285646815,2,1,0.810345207,1,2,2,1,1.060279889,2,0,0,5,abstract
129,1,0.356225806,0.253939375,0.420661529,0.300158635,2,1,0.804202162,1,1,2,1,0.988822582,2,0,0,5,abstract
130,0,0.360502344,0.261257455,0.40657316,0.288936287,1,2,0.870401795,1,2,1,2,1.819324268,2,0,0,5,abstract
131,1,0.37254856,0.254916674,0.417165619,0.269542748,1,2,0.845690391,1,1,1,2,1.016519472,2,0,0,5,abstract
132,1,0.346153389,0.289636675,0.421422279,0.287512082,2,1,0.972229279,2,2,1,2,1.360228931,1,1,0,5,abstract
133,1,0.337574894,0.272977385,0.403531323,0.30365643,1,2,0.774005564,2,2,1,2,0.837118757,1,0,0,5,abstract
134,1,0.343554992,0.28665577,0.450151674,0.313260492,1,2,0.741998145,2,2,2,1,1.144866768,1,1,0,5,abstract
135,1,0.268962479,0.286654658,0.453925241,0.263868838,2,1,1.045045078,2,2,1,2,0.817443535,1,0,0,5,abstract
136,1,0.279234543,0.268385573,0.442123879,0.297591924,1,2,0.71156589,2,2,1,2,0.669146787,1,1,0,5,abstract
137,1,0.28049006,0.302119226,0.426711821,0.293591772,2,1,0.701270527,2,2,2,1,0.963379799,1,0,0,5,abstract
138,1,0.251776581,0.350048006,0.429050875,0.253221305,1,2,0.707789055,2,2,2,1,0.93005638,1,1,0,5,abstract
139,0,0.251039138,0.331842618,0.440729486,0.258725561,2,1,0.830129216,2,1,1,2,1.199980593,2,1,0,5,abstract
140,1,0.252077315,0.321281755,0.44607137,0.26069636,2,1,0.740804795,1,1,2,1,0.72989799,2,0,0,5,abstract
141,1,0.258876617,0.271567289,0.428000869,0.267381851,2,1,1.495729401,1,1,1,2,0.500630577,2,0,0,5,abstract
142,0,0.26149586,0.269316252,0.43053038,0.313238263,1,2,1.039725626,2,1,2,1,1.416512902,2,0,0,5,abstract
143,1,0.311243626,0.265449437,0.392451393,0.287075121,2,1,1.162091703,2,2,2,1,0.685151551,2,0,0,5,abstract
144,0,0.2981486,0.276606432,0.367303737,0.253327879,1,2,0.806631957,2,1,2,1,1.021145514,2,1,0,5,abstract
145,1,0.282816057,0.272752126,0.401808731,0.278745281,2,1,0.802418766,2,2,2,1,1.266674743,2,0,0,5,abstract
146,1,0.26845325,0.26017622,0.410189077,0.3237489,2,1,0.882227721,2,2,2,1,0.717014622,1,1,0,5,abstract
147,1,0.290968736,0.297200491,0.400128264,0.321364566,1,2,0.853882926,2,2,2,1,1.010739555,1,1,0,5,abstract
148,1,0.294294922,0.29983735,0.428433876,0.320035144,2,1,0.707542249,2,2,1,2,0.723267359,2,1,0,5,abstract
149,0,0.253209345,0.302951116,0.448595872,0.316784781,1,2,0.695909187,2,1,2,1,1.332121901,2,1,0,5,abstract
0,0,0.632766138,0.478892911,0.424407272,0.311154278,1,2,1.015914344,1,2,2,1,1.071149563,1,0,0,6,abstract
1,1,0.657486189,0.462739376,0.399279116,0.350300697,1,2,0.767808485,1,1,2,1,1.293879261,2,0,0,6,abstract
2,1,0.613011469,0.475681548,0.420326635,0.331588335,1,2,0.626078309,1,1,2,1,1.364489707,1,1,0,6,abstract
3,0,0.631874341,0.46565991,0.394070904,0.309898171,2,1,0.765512191,1,2,1,2,1.242728552,2,1,0,6,abstract
4,1,0.64353967,0.499258086,0.401844691,0.269268712,1,2,0.834943753,2,2,1,2,1.258654347,2,0,0,6,abstract
5,1,0.621802087,0.508123708,0.397337662,0.261812229,2,1,0.680928101,1,1,2,1,1.198392594,2,1,0,6,abstract
6,1,0.573381184,0.502708845,0.408983531,0.282131971,2,1,0.597893255,1,1,1,2,0.733888422,2,1,0,6,abstract
7,1,0.596244234,0.486156481,0.416843225,0.289643403,2,1,0.544285331,1,1,2,1,0.905465301,2,1,0,6,abstract
8,1,0.628695623,0.540999533,0.408132528,0.272391982,1,2,0.71045959,1,1,1,2,0.870350079,2,1,0,6,abstract
9,0,0.621705579,0.555159458,0.437327158,0.257155599,1,2,0.654203695,1,2,2,1,1.5208565,1,0,0,6,abstract
10,1,0.646482655,0.552166164,0.40369319,0.298068371,2,1,0.695438451,1,1,1,2,0.925390023,2,1,0,6,abstract
11,1,0.625553584,0.578853282,0.42983318,0.289644047,2,1,0.572055424,1,1,1,2,0.906882554,2,1,0,6,abstract
12,0,0.627934746,0.567715797,0.431677786,0.291766049,1,2,0.77750385,1,2,1,2,1.032287646,2,0,0,6,abstract
13,1,0.565789264,0.599487721,0.436926602,0.295885469,2,1,0.675979014,1,1,1,2,0.646943548,2,1,0,6,abstract
14,1,0.551462865,0.606775534,0.482416621,0.269372988,2,1,0.567639729,1,1,1,2,0.707026902,2,0,0,6,abstract
15,0,0.582636052,0.621551955,0.445486584,0.259065238,1,2,0.667889247,1,2,2,1,1.424866577,2,0,0,6,abstract
16,0,0.587496427,0.639396446,0.511069356,0.263979415,1,2,0.668579944,1,2,2,1,1.045300281,2,0,0,6,abstract
17,1,0.600807472,0.627722218,0.503607578,0.278897357,1,2,0.619814729,1,1,2,1,0.772923014,2,0,0,6,abstract
18,1,0.645640415,0.687257463,0.511295723,0.30399887,2,1,0.7604953,1,1,1,2,0.712766131,2,0,0,6,abstract
19,1,0.674804716,0.661391996,0.488767001,0.294364779,1,2,0.727580544,1,1,2,1,0.708196445,2,0,0,6,abstract
20,0,0.667560158,0.635529185,0.506712663,0.342148647,1,2,0.67353777,1,2,2,1,1.160128556,1,0,0,6,abstract
21,0,0.744442772,0.66448892,0.443795309,0.383797235,1,2,0.631884137,1,2,1,2,1.327265029,1,0,0,6,abstract
22,1,0.732257966,0.652041967,0.443686248,0.377878937,1,2,0.729962723,2,2,1,2,1.201824077,2,0,0,6,abstract
23,1,0.737365039,0.622171743,0.411949678,0.372329255,1,2,0.607063968,2,2,2,1,1.143035629,1,1,0,6,abstract
24,0,0.727138264,0.659246588,0.437076132,0.383247099,1,2,0.655920793,2,1,1,2,1.683791537,2,0,0,6,abstract
25,0,0.701176641,0.683483713,0.413763153,0.366892399,2,1,0.893884082,1,2,2,1,1.118117822,1,1,0,6,abstract
26,1,0.688167479,0.716960288,0.383453788,0.361707161,2,1,0.678617342,1,1,2,1,0.885183779,1,1,0,6,abstract
27,0,0.720857277,0.717673715,0.374027615,0.360598795,1,2,0.683639054,1,2,2,1,1.194110397,1,0,0,6,abstract
28,1,0.682575163,0.683466279,0.374689827,0.35381608,1,2,0.600480052,1,1,2,1,0.722711918,1,1,0,6,abstract
29,1,0.65742286,0.649443676,0.37746101,0.349211251,2,1,0.736814238,1,1,1,2,0.816281088,1,1,0,6,abstract
30,1,0.653650496,0.643130325,0.374459544,0.344643731,1,2,0.720166406,1,1,1,2,0.651034689,1,0,0,6,abstract
31,1,0.615953379,0.61014649,0.359605945,0.364263175,2,1,0.625282441,1,1,1,2,0.602404781,1,1,0,6,abstract
32,1,0.588815203,0.626736424,0.366284937,0.381316939,1,2,0.698517956,1,1,1,2,0.568838503,1,0,0,6,abstract
33,0,0.589500556,0.642567331,0.399961935,0.414854945,1,2,0.606054743,1,2,2,1,1.025077824,1,0,0,6,abstract
34,0,0.578122052,0.673295332,0.388060457,0.414760718,1,2,0.510701877,1,2,2,1,0.74980819,1,0,0,6,abstract
35,1,0.568773956,0.669353712,0.342590435,0.41072033,2,1,0.692782645,1,1,2,1,0.761007898,1,0,0,6,abstract
36,0,0.602072728,0.717128389,0.35754627,0.402292231,2,1,0.648054629,1,2,2,1,1.105132911,2,0,0,6,abstract
37,1,0.63654354,0.70487715,0.336932046,0.418299028,2,1,0.595357689,1,1,1,2,0.834624019,1,1,0,6,abstract
38,1,0.631295039,0.688782484,0.33513829,0.430796852,1,2,0.673011611,1,1,1,2,0.615548504,1,1,0,6,abstract
39,0,0.63860708,0.668020542,0.298244267,0.448262757,2,1,0.629802404,1,2,2,1,0.872602979,1,0,0,6,abstract
40,0,0.646466813,0.618610435,0.280413609,0.451539452,1,2,0.68052188,1,2,1,2,1.028733512,1,0,0,6,abstract
41,1,0.627315878,0.631384614,0.289217143,0.454742185,1,2,0.714975937,1,1,1,2,0.722955409,1,1,0,6,abstract
42,1,0.66210863,0.621688032,0.314731215,0.443950086,2,1,0.609033899,1,1,1,2,0.626110855,1,0,0,6,abstract
43,0,0.635269801,0.614693296,0.313845849,0.447676308,1,2,0.718865474,1,2,2,1,0.890070486,1,0,0,6,abstract
44,1,0.606662722,0.624911771,0.299550421,0.446592732,2,1,0.78614991,1,1,2,1,0.73902736,1,1,0,6,abstract
45,1,0.601783726,0.598935049,0.273029755,0.441499515,2,1,0.621975416,1,1,2,1,0.788171674,1,0,0,6,abstract
46,1,0.608324004,0.604561162,0.323921682,0.424694251,1,2,0.82863256,1,1,1,2,0.683969335,1,1,0,6,abstract
47,1,0.570910844,0.592135583,0.339324798,0.42736184,2,1,0.742157492,1,1,2,1,0.646120558,1,0,0,6,abstract
48,1,0.568841632,0.580916754,0.348978209,0.410802309,1,2,0.819802073,1,1,2,1,0.615223346,1,1,0,6,abstract
49,0,0.541526579,0.585308763,0.330133793,0.422030363,2,1,0.740014284,1,2,2,1,0.944083727,1,0,0,6,abstract
50,1,0.502684739,0.581618571,0.3310698,0.428950165,1,2,0.912336103,1,1,1,2,0.799653446,1,1,0,6,abstract
51,0,0.453190571,0.594473243,0.320577947,0.443409543,2,1,0.851964055,1,2,2,1,0.89911433,1,0,0,6,abstract
52,0,0.474517228,0.598028639,0.320473386,0.476874505,1,2,0.671961704,1,2,1,2,0.905235973,2,1,0,6,abstract
53,1,0.50056743,0.626239759,0.271070447,0.446015152,2,1,0.645514542,1,1,2,1,0.98173542,1,0,0,6,abstract
54,1,0.502100715,0.603308117,0.313423085,0.444503399,1,2,0.819051709,1,1,2,1,0.763335533,1,0,0,6,abstract
55,1,0.516979447,0.621762833,0.363096682,0.408365476,1,2,0.882078659,1,1,1,2,0.821220833,2,1,0,6,abstract
56,1,0.518391168,0.615984924,0.391665175,0.387083888,1,2,0.832410898,1,1,1,2,0.674831469,2,0,0,6,abstract
57,1,0.526155648,0.642392134,0.398812924,0.41422267,2,1,0.68169986,1,1,1,2,0.65727627,2,1,0,6,abstract
58,1,0.504296679,0.658318447,0.373813785,0.459889072,2,1,0.651073864,1,1,2,1,0.861095592,2,1,0,6,abstract
59,1,0.501765079,0.698666574,0.375555828,0.427065446,1,2,0.727229771,1,1,1,2,0.835374685,2,1,0,6,abstract
60,1,0.52432074,0.69197448,0.391499226,0.411210854,2,1,1.01164842,1,1,2,1,0.806406119,2,1,0,6,abstract
61,0,0.530292896,0.662430191,0.433888757,0.323518414,2,1,0.6069374,1,2,1,2,1.404016707,2,0,0,6,abstract
62,0,0.528077823,0.668982931,0.438084138,0.329313219,1,2,0.789640458,1,2,1,2,0.905721148,2,1,0,6,abstract
63,0,0.551562113,0.642910555,0.392650793,0.30832565,1,2,0.737325631,1,2,1,2,0.774244136,2,1,0,6,abstract
64,1,0.528980473,0.678525412,0.416764187,0.309362699,2,1,0.646059987,1,1,1,2,0.934190978,2,1,0,6,abstract
65,1,0.493250737,0.696267514,0.416272525,0.349436435,1,2,0.847371768,1,1,1,2,0.649051498,2,1,0,6,abstract
66,1,0.492394076,0.70705885,0.387628709,0.365651731,2,1,0.673438324,1,1,2,1,0.79313854,2,0,0,6,abstract
67,1,0.502956056,0.696658048,0.37836678,0.393763362,1,2,0.748247795,1,1,1,2,0.617104982,2,1,0,6,abstract
68,1,0.50633079,0.679363276,0.351470824,0.427117494,2,1,0.623968852,1,1,2,1,0.722472344,2,0,0,6,abstract
69,1,0.51877299,0.710076721,0.358434217,0.421096369,2,1,0.64817758,1,1,1,2,0.656334548,2,1,0,6,abstract
70,1,0.496160199,0.748005765,0.379391673,0.408580023,1,2,0.804400929,1,1,2,1,0.679209195,2,0,0,6,abstract
71,1,0.506332556,0.746063564,0.378502523,0.395923676,1,2,0.824351869,1,1,1,2,0.713867267,2,1,0,6,abstract
72,1,0.519583734,0.71181274,0.361818008,0.413756683,2,1,0.750063434,1,1,2,1,0.78071595,2,0,0,6,abstract
73,1,0.547334286,0.68104823,0.365582156,0.423508393,2,1,0.664575291,1,1,2,1,0.771054337,2,0,0,6,abstract
74,1,0.534815369,0.720715417,0.359061864,0.428193056,1,2,0.723011159,1,1,1,2,0.956034101,1,1,0,6,abstract
75,0,0.534433233,0.746791468,0.36168584,0.424895232,1,2,0.717227631,1,2,1,2,1.043961982,2,0,0,6,abstract
76,1,0.502808379,0.731839322,0.369023793,0.422092532,1,2,0.820110355,1,1,2,1,0.780366382,1,1,0,6,abstract
77,1,0.535827539,0.729897338,0.367993332,0.423817928,1,2,0.805909794,1,1,1,2,0.83908552,1,0,0,6,abstract
78,0,0.517567414,0.748330682,0.399417036,0.436499887,1,2,0.775147587,1,2,2,1,0.972797351,2,1,0,6,abstract
79,0,0.550081594,0.740652352,0.418388173,0.45497378,2,1,0.634156925,1,2,2,1,0.843842044,2,0,0,6,abstract
80,0,0.519350388,0.744538284,0.428237795,0.470423208,2,1,0.793995884,1,2,1,2,1.381316843,1,1,0,6,abstract
81,1,0.53956115,0.739202381,0.423012334,0.497065917,1,2,0.871060966,2,2,2,1,1.199165559,1,0,0,6,abstract
82,1,0.573630633,0.735993764,0.437094081,0.495045966,2,1,0.96365828,2,2,1,2,1.223273334,1,0,0,6,abstract
83,1,0.546033006,0.748842564,0.440593719,0.468751054,1,2,0.763924072,1,1,2,1,1.107969829,1,1,0,6,abstract
84,0,0.53260679,0.749330658,0.418025247,0.492205568,2,1,0.789046797,1,2,2,1,1.464875135,2,1,0,6,abstract
85,1,0.532421061,0.743230836,0.42271065,0.48235276,2,1,0.63619225,1,1,2,1,1.0730092,1,0,0,6,abstract
86,0,0.507328626,0.746545184,0.458163128,0.413169867,1,2,0.750170414,1,2,1,2,1.373960264,2,1,0,6,abstract
87,1,0.512108148,0.727117208,0.454698403,0.387962981,1,2,0.591943684,1,1,1,2,0.946156721,2,1,0,6,abstract
88,1,0.539982193,0.749348566,0.441569754,0.396166819,1,2,0.653183019,1,1,1,2,0.626498694,2,1,0,6,abstract
89,1,0.5221169,0.744801391,0.442292478,0.43467861,2,1,0.812454534,1,1,1,2,0.679128131,2,1,0,6,abstract
90,1,0.508513279,0.702587893,0.465491982,0.449287394,2,1,0.646434265,1,1,2,1,0.765862662,2,1,0,6,abstract
91,1,0.509199276,0.727054758,0.466192992,0.436088092,2,1,0.809750813,1,1,1,2,0.759670804,2,0,0,6,abstract
92,1,0.527124017,0.71901813,0.478688253,0.396227591,1,2,0.795260051,1,1,2,1,0.718296222,2,0,0,6,abstract
93,0,0.521633254,0.685084058,0.521134004,0.348351339,2,1,0.64506794,1,2,1,2,1.025249594,2,1,0,6,abstract
94,1,0.514320022,0.663701808,0.50243308,0.424505118,2,1,0.698411278,1,1,1,2,1.204502786,1,1,0,6,abstract
95,1,0.502840645,0.642278681,0.480393173,0.40665041,2,1,0.649475197,1,1,1,2,0.719895793,1,0,0,6,abstract
96,0,0.536986787,0.624123998,0.514284811,0.40867984,1,2,0.755119199,1,2,2,1,0.84293106,2,0,0,6,abstract
97,1,0.544370573,0.628889148,0.553124443,0.385621916,2,1,0.710697959,1,1,2,1,0.944978438,1,1,0,6,abstract
98,1,0.537444716,0.642139228,0.575033582,0.37735234,2,1,0.611838572,1,1,2,1,0.705094037,1,1,0,6,abstract
99,1,0.56370583,0.663678381,0.535001113,0.380840921,1,2,0.787323672,1,1,2,1,0.645252668,1,1,0,6,abstract
100,0,0.526423213,0.675636011,0.533010973,0.372897431,1,2,0.884577762,1,2,1,2,0.907061256,2,0,0,6,abstract
101,1,0.49182708,0.68979803,0.546223971,0.393061568,2,1,0.871903544,1,1,2,1,0.861148629,1,0,0,6,abstract
102,1,0.499563982,0.661594957,0.490944535,0.430097819,2,1,0.581679067,1,1,1,2,0.925290578,2,1,0,6,abstract
103,0,0.482474446,0.675413086,0.517647791,0.415694474,2,1,0.530936689,1,2,1,2,0.932303918,2,0,0,6,abstract
104,1,0.482600016,0.686318421,0.484771546,0.412270847,1,2,0.76115104,1,1,2,1,0.912335801,2,1,0,6,abstract
105,1,0.471497431,0.663902667,0.465986549,0.392202602,1,2,0.76031449,1,1,1,2,0.797647353,2,1,0,6,abstract
106,1,0.466738619,0.659168635,0.43933829,0.393988678,2,1,0.718689184,1,1,2,1,0.703010195,2,1,0,6,abstract
107,1,0.512860813,0.667700101,0.445408672,0.411538502,2,1,0.745962651,1,1,1,2,0.582074138,2,1,0,6,abstract
108,1,0.544206271,0.737280167,0.400330441,0.384798425,1,2,0.825838434,1,1,2,1,0.754041267,2,1,0,6,abstract
109,0,0.608099138,0.734818342,0.373809607,0.388862171,1,2,0.735293923,1,2,1,2,1.328048843,1,0,0,6,abstract
110,1,0.588925497,0.739298247,0.379838052,0.397595143,2,1,0.611174998,1,1,1,2,0.74134053,2,0,0,6,abstract
111,1,0.585584498,0.718260481,0.387748354,0.376307993,1,2,0.699838777,1,1,2,1,0.728821507,2,1,0,6,abstract
112,1,0.543491642,0.704799671,0.34665716,0.41264829,1,2,0.678139399,1,1,2,1,0.722285506,2,1,0,6,abstract
113,1,0.537780248,0.705190073,0.357639359,0.404867958,2,1,0.709463625,1,1,2,1,0.760753257,2,0,0,6,abstract
114,1,0.57379329,0.703005591,0.320694093,0.400955823,1,2,0.755631195,1,1,2,1,0.72610754,2,1,0,6,abstract
115,1,0.567667702,0.683629823,0.368631298,0.372947736,1,2,0.817729682,1,1,2,1,0.699949072,2,1,0,6,abstract
116,1,0.526427342,0.672775239,0.388860483,0.414333727,1,2,0.564110909,1,1,1,2,0.607786306,2,0,0,6,abstract
117,1,0.508672927,0.7177766,0.38100278,0.448076343,1,2,0.697271267,1,1,1,2,0.605113022,2,1,0,6,abstract
118,1,0.506382599,0.696443024,0.372574368,0.444325386,2,1,0.602945706,1,1,1,2,0.597278801,2,1,0,6,abstract
119,1,0.511115885,0.692474543,0.379292472,0.470472137,2,1,0.629613156,1,1,2,1,0.716380233,2,1,0,6,abstract
120,1,0.543214644,0.675698194,0.366284814,0.46649948,2,1,0.600553582,1,1,2,1,0.568263827,2,1,0,6,abstract
121,0,0.519005105,0.720648173,0.398532396,0.423468168,2,1,0.790845259,1,2,2,1,1.056193214,2,1,0,6,abstract
122,1,0.479816889,0.698578603,0.385432963,0.409928261,2,1,0.585923595,1,1,1,2,0.647090909,2,1,0,6,abstract
123,0,0.475942402,0.696870069,0.377211037,0.389322831,2,1,0.693443507,1,2,1,2,0.731913669,2,0,0,6,abstract
124,1,0.485198271,0.696015513,0.371817546,0.387336437,1,2,0.731950735,1,1,1,2,0.545296966,2,1,0,6,abstract
125,0,0.516142176,0.70934897,0.350241954,0.367974836,2,1,0.755950325,1,2,2,1,0.899472334,2,1,0,6,abstract
126,1,0.475517769,0.74813399,0.378959159,0.358316521,1,2,0.781274052,1,1,2,1,0.699079071,2,1,0,6,abstract
127,1,0.458067495,0.719882742,0.369267992,0.342906441,2,1,0.721291349,1,1,2,1,0.629712602,2,0,0,6,abstract
128,1,0.466592355,0.721115278,0.354549411,0.354669414,1,2,0.699152902,1,1,1,2,0.671230024,2,1,0,6,abstract
129,0,0.411879056,0.703176806,0.302155353,0.334229507,1,2,0.665720123,1,2,2,1,0.858236374,2,0,0,6,abstract
130,0,0.40681283,0.719589566,0.274101448,0.327450905,2,1,0.757694846,1,2,2,1,0.654001187,2,1,0,6,abstract
131,1,0.395214875,0.723101504,0.287408655,0.33018946,2,1,0.570074946,1,1,2,1,0.590908844,2,1,0,6,abstract
132,1,0.394202733,0.723642208,0.298476088,0.317769229,2,1,0.582391461,1,1,1,2,0.59627922,2,1,0,6,abstract
133,1,0.374548801,0.721560962,0.282494159,0.332334768,1,2,0.70342395,1,1,2,1,0.605021712,2,0,0,6,abstract
134,0,0.442035144,0.746418482,0.30987762,0.279744998,2,1,0.662377539,1,2,1,2,0.860000784,2,0,0,6,abstract
135,0,0.478750021,0.742551771,0.32539345,0.30207716,2,1,0.753999078,1,2,1,2,0.608237428,2,0,0,6,abstract
136,1,0.471855145,0.72500578,0.283015754,0.304788391,2,1,0.556904402,1,1,2,1,0.534138543,2,1,0,6,abstract
137,0,0.462965577,0.668034152,0.275375491,0.282169695,1,2,0.890155768,1,2,1,2,0.932126724,1,1,0,6,abstract
138,1,0.438120865,0.641340872,0.318379917,0.283819441,1,2,0.72533578,1,1,2,1,1.121369098,2,1,0,6,abstract
139,1,0.501690177,0.645242381,0.342345926,0.25042527,1,2,0.596548025,1,1,1,2,0.64909218,2,1,0,6,abstract
140,1,0.468185334,0.640289729,0.339986472,0.29570301,2,1,0.793058079,1,1,2,1,0.713936578,2,1,0,6,abstract
141,1,0.451668131,0.640531677,0.346767913,0.275081662,2,1,0.62015164,1,1,1,2,0.593716833,2,0,0,6,abstract
142,1,0.44181114,0.678329518,0.359391358,0.251566634,2,1,0.526139785,1,1,1,2,0.594632035,2,0,0,6,abstract
143,1,0.453454258,0.676727377,0.346331352,0.292586072,2,1,0.55662716,1,1,1,2,0.948312284,2,1,0,6,abstract
144,0,0.448192118,0.693274938,0.28590053,0.284746281,2,1,0.543323118,1,2,2,1,1.074190496,1,0,0,6,abstract
145,1,0.448743032,0.681345516,0.253513847,0.275276914,2,1,0.624055641,1,1,2,1,1.065827404,2,1,0,6,abstract
146,1,0.486282431,0.686904166,0.267437534,0.257937734,1,2,0.859009038,1,1,2,1,0.583751759,2,1,0,6,abstract
147,0,0.493893796,0.662983359,0.278600911,0.278892644,2,1,0.847489596,1,2,2,1,1.062000548,1,0,0,6,abstract
148,1,0.506885213,0.648797432,0.259354145,0.268038726,2,1,0.765858142,1,1,1,2,1.001953357,2,1,0,6,abstract
149,0,0.528623504,0.672555017,0.258170495,0.299182434,1,2,0.588248518,1,2,1,2,0.89030554,1,0,0,6,abstract
0,1,0.40630312,0.483309346,0.266716504,0.378666968,1,2,1.263689018,2,2,1,2,0.765005017,2,1,0,7,story
1,1,0.423546878,0.445363923,0.260850578,0.384276013,1,2,0.992895953,1,1,2,1,0.959647299,2,0,0,7,story
2,0,0.402993048,0.44448138,0.266180691,0.389457449,2,1,0.811982015,1,2,2,1,1.315376131,1,1,0,7,story
3,1,0.402953871,0.457262801,0.279368698,0.40765745,2,1,0.774291147,1,1,2,1,1.778147837,1,0,0,7,story
4,1,0.422566684,0.461007166,0.264434318,0.418165357,2,1,0.938926407,1,1,2,1,1.793770172,2,1,0,7,story
5,1,0.439603176,0.432330103,0.25888052,0.405362191,1,2,0.909536854,2,2,2,1,1.21909872,1,1,0,7,story
6,0,0.438279251,0.428916849,0.275474439,0.409071445,2,1,1.004463309,2,1,1,2,1.772644566,1,1,0,7,story
7,0,0.407209939,0.451604051,0.313139625,0.368893287,1,2,1.457039709,2,1,1,2,1.053949656,2,0,0,7,story
8,1,0.425527215,0.492274916,0.28242431,0.354975771,1,2,0.650639617,1,1,2,1,1.549309756,1,0,0,7,story
9,1,0.417177271,0.52121028,0.308243139,0.297623028,1,2,1.250949105,1,1,1,2,1.174218823,2,0,0,7,story
10,1,0.454536794,0.544781416,0.284647831,0.276063085,2,1,1.441179307,1,1,2,1,NaN,NaN,0,1,7,story
11,1,0.438912187,0.494554386,0.289305172,0.266315915,2,1,0.585401656,1,1,1,2,0.374987569,1,0,0,7,story
12,1,0.398615134,0.445709086,0.317106877,0.258132282,1,2,0.726861822,1,1,2,1,0.770860869,2,0,0,7,story
13,1,0.471257458,0.452474753,0.311756311,0.26172093,2,1,0.900394167,2,2,1,2,0.759095224,1,1,0,7,story
14,1,0.51771484,0.491934277,0.264117431,0.287912546,2,1,0.848941505,2,2,1,2,0.532815612,1,0,0,7,story
15,0,0.502185447,0.508262068,0.254645704,0.256770598,2,1,0.868710128,2,1,2,1,1.169909203,2,1,0,7,story
16,1,0.476399854,0.496649654,0.257696791,0.255436059,1,2,1.203689138,1,1,1,2,0.989730562,2,0,0,7,story
17,1,0.486924348,0.484908791,0.278863447,0.254069177,1,2,0.727000744,1,1,2,1,0.851975506,2,1,0,7,story
18,0,0.439742068,0.489122238,0.271126962,0.278617388,2,1,0.9140755,2,1,1,2,1.126577346,2,1,0,7,story
19,0,0.45751991,0.51918444,0.282467036,0.274684586,2,1,0.672130461,2,1,2,1,0.739621624,2,1,0,7,story
20,0,0.461695777,0.518594637,0.293487891,0.321083706,2,1,0.77583527,2,1,1,2,0.822132118,2,0,0,7,story
21,1,0.445024427,0.517707491,0.275147343,0.398299892,1,2,0.843090776,1,1,2,1,0.868888226,1,1,0,7,story
22,1,0.468235225,0.52597655,0.299962907,0.388675998,1,2,0.866799261,2,2,1,2,0.793994075,1,0,0,7,story
23,1,0.4837407,0.495353597,0.28497433,0.376365006,1,2,1.056008787,2,2,2,1,0.73546509,2,0,0,7,story
24,1,0.501260665,0.496584123,0.275404413,0.386523183,1,2,0.532589901,2,2,2,1,0.717734504,2,1,0,7,story
25,0,0.509687824,0.509420921,0.26017829,0.382655954,2,1,0.810814883,2,1,2,1,1.192170902,2,0,0,7,story
26,0,0.484017025,0.517873658,0.280012796,0.382879352,1,2,0.842791233,2,1,1,2,1.078026392,2,0,0,7,story
27,1,0.493627146,0.461193274,0.306800258,0.371812347,1,2,0.947407327,1,1,1,2,1.296829185,2,1,0,7,story
28,0,0.499924792,0.476749118,0.319401095,0.36601838,2,1,0.915678386,2,1,1,2,0.8965649,2,1,0,7,story
29,1,0.523325081,0.470435641,0.341094228,0.362693931,2,1,0.741153391,1,1,1,2,0.550745693,2,0,0,7,story
30,1,0.562968227,0.435712087,0.360680698,0.422752235,1,2,1.097956841,2,2,1,2,0.967802458,2,1,0,7,story
31,1,0.561291832,0.397202017,0.345859412,0.445644291,2,1,0.736877221,2,2,1,2,1.145380742,2,1,0,7,story
32,1,0.552537033,0.409488734,0.348278777,0.451569118,2,1,1.064566552,2,2,1,2,0.639658389,2,0,0,7,story
33,1,0.514001446,0.387766142,0.292712394,0.441434209,2,1,0.794257155,2,2,1,2,0.974896863,1,0,0,7,story
34,1,0.488112876,0.366173661,0.290702675,0.46591656,1,2,0.889264372,1,1,2,1,0.813665362,2,0,0,7,story
35,1,0.494043809,0.374998478,0.299975691,0.471376935,1,2,0.922722766,1,1,2,1,0.46972779,1,0,0,7,story
36,1,0.532889601,0.38792191,0.278979334,0.472985462,2,1,0.617029644,2,2,1,2,0.614073994,2,0,0,7,story
37,0,0.559264483,0.391653611,0.292448563,0.474898939,2,1,0.679707328,2,1,2,1,1.16137193,2,0,0,7,story
38,1,0.562024977,0.398582865,0.305088127,0.467918901,2,1,0.679974626,2,2,1,2,0.757459491,2,1,0,7,story
39,1,0.552615354,0.380217365,0.296059226,0.465138454,2,1,0.613380585,1,1,1,2,0.843830894,1,1,0,7,story
40,1,0.57190422,0.389669369,0.252874463,0.520594134,2,1,0.660478425,2,2,2,1,0.621119278,2,0,0,7,story
41,0,0.57299365,0.402718591,0.281088524,0.499571912,2,1,0.926976938,2,1,1,2,1.360962394,1,0,0,7,story
42,1,0.537158716,0.345971595,0.290593972,0.505475102,2,1,0.763932509,2,2,2,1,0.69319881,1,0,0,7,story
43,1,0.559359925,0.340868594,0.279622605,0.529848015,1,2,0.750719475,1,1,1,2,0.824962406,2,0,0,7,story
44,1,0.543196777,0.345404613,0.271964084,0.498638357,1,2,0.938937557,1,1,1,2,0.985001763,1,0,0,7,story
45,0,0.531665767,0.36654002,0.269494244,0.533893176,1,2,0.738787484,2,1,2,1,1.38867945,1,0,0,7,story
46,1,0.55014136,0.355815407,0.258578579,0.525869292,1,2,0.679534955,1,1,2,1,1.353539819,1,1,0,7,story
47,0,0.520490854,0.357359652,0.27947057,0.552619113,2,1,0.958648923,1,2,1,2,1.234725575,1,0,0,7,story
48,1,0.477185908,0.330638686,0.320230518,0.589897994,1,2,1.163146285,1,1,1,2,0.833176631,1,1,0,7,story
49,0,0.475858665,0.308740137,0.274528241,0.589069465,2,1,1.142642667,1,2,1,2,1.083479037,2,1,0,7,story
50,0,0.472138345,0.291693445,0.261167395,0.618293438,2,1,0.97996649,2,1,2,1,0.950369908,2,0,0,7,story
51,1,0.487048768,0.271787967,0.255689284,0.641730695,2,1,0.572445071,2,2,2,1,1.235787837,2,0,0,7,story
52,1,0.484110849,0.270010275,0.254647996,0.668471425,2,1,0.61808829,2,2,2,1,0.839133737,1,1,0,7,story
53,1,0.511501107,0.267890009,0.279420564,0.686488926,2,1,0.561289662,2,2,2,1,1.009053788,1,0,0,7,story
54,1,0.546130417,0.273698198,0.250062599,0.658688332,2,1,0.736888973,2,2,1,2,1.172717493,2,1,0,7,story
55,1,0.540182435,0.279998771,0.26036526,0.678260087,2,1,0.585853682,2,2,1,2,0.83099937,2,0,0,7,story
56,1,0.572107753,0.25986476,0.255864195,0.680847587,2,1,0.784237236,1,1,1,2,0.820110053,1,1,0,7,story
57,1,0.582050514,0.268656118,0.264023991,0.65291571,2,1,0.518874816,1,1,1,2,0.42708904,1,1,0,7,story
58,1,0.575530637,0.265425269,0.250103179,0.661041333,1,2,0.887289921,2,2,1,2,0.750936749,2,1,0,7,story
59,1,0.541705724,0.313297716,0.286963622,0.652679757,2,1,0.912778787,2,2,1,2,0.79451933,2,0,0,7,story
60,1,0.580793741,0.298548768,0.260486689,0.672256648,2,1,0.845818002,1,1,1,2,0.871138414,1,1,0,7,story
61,1,0.583597714,0.288540732,0.264304187,0.68709291,2,1,0.983851808,1,1,1,2,0.645750499,1,1,0,7,story
62,1,0.570968908,0.308581954,0.266342199,0.683102275,1,2,0.987895636,1,1,2,1,1.103079505,1,0,0,7,story
63,1,0.553477436,0.290395566,0.301090816,0.686680999,1,2,0.866022077,1,1,2,1,1.053220086,2,1,0,7,story
64,1,0.576703953,0.261045947,0.287139654,0.66388542,1,2,0.699483786,1,1,1,2,0.965727657,2,1,0,7,story
65,1,0.588322257,0.290486594,0.265560154,0.675407764,1,2,0.822452454,1,1,2,1,1.043273997,1,0,0,7,story
66,0,0.605446141,0.292194541,0.281400375,0.681065008,2,1,0.873053499,2,1,1,2,1.556779944,2,0,0,7,story
67,0,0.593942379,0.271063763,0.280784442,0.695038415,2,1,0.793086406,2,1,1,2,1.317253548,2,1,0,7,story
68,0,0.601134921,0.288368302,0.260804316,0.650847785,2,1,1.071026311,1,2,1,2,1.025863144,1,0,0,7,story
69,1,0.605929086,0.334415351,0.290526752,0.652139486,1,2,0.979252589,2,2,2,1,0.77525547,2,1,0,7,story
70,0,0.60063831,0.30638157,0.267747763,0.666458967,2,1,0.834718041,2,1,1,2,1.435257158,1,0,0,7,story
71,0,0.623420824,0.321536826,0.277767473,0.687523551,1,2,1.00541829,1,2,2,1,1.21496328,1,0,0,7,story
72,0,0.645649532,0.285000932,0.268604426,0.669209928,2,1,0.828924267,2,1,2,1,1.293034875,1,0,0,7,story
73,1,0.663260662,0.308327582,0.344135656,0.680078612,1,2,0.846278466,2,2,2,1,0.83694171,2,0,0,7,story
74,1,0.65100372,0.262908743,0.337495825,0.676332169,1,2,0.804340358,1,1,2,1,0.532142093,2,0,0,7,story
75,0,0.636403607,0.288392967,0.321531566,0.667463447,1,2,0.788019491,1,2,1,2,1.217092928,2,1,0,7,story
76,1,0.637617376,0.287570352,0.354667259,0.646911385,1,2,0.753003113,2,2,1,2,0.606887677,2,1,0,7,story
77,1,0.619538249,0.258800279,0.36040762,0.607051986,1,2,0.757472148,2,2,2,1,0.902477105,2,1,0,7,story
78,1,0.649261006,0.251822453,0.332126741,0.571164209,2,1,0.757583647,2,2,1,2,1.040125784,2,0,0,7,story
79,0,0.602924045,0.275278381,0.346431161,0.563624422,1,2,0.971317717,1,2,2,1,1.311734606,1,1,0,7,story
80,1,0.625669817,0.273027365,0.383264024,0.57567794,2,1,0.983867779,2,2,2,1,0.728866107,1,1,0,7,story
81,1,0.60014992,0.255564336,0.373214951,0.557918555,2,1,0.579470165,2,2,2,1,0.609858395,1,1,0,7,story
82,1,0.631616342,0.266999682,0.393805187,0.571449303,1,2,1.005241096,1,1,1,2,0.729666495,1,0,0,7,story
83,0,0.623321345,0.259421965,0.424295475,0.582187992,2,1,0.748849291,1,2,1,2,1.489807105,2,0,0,7,story
84,1,0.5770644,0.271146661,0.393394606,0.578867043,2,1,0.797695268,2,2,1,2,0.674055792,1,0,0,7,story
85,1,0.522075251,0.293962983,0.445949141,0.586434466,1,2,0.947266295,2,2,2,1,0.61871299,2,0,0,7,story
86,1,0.492479038,0.29064086,0.427541706,0.606191295,1,2,0.804043828,1,1,2,1,0.553967436,2,0,0,7,story
87,1,0.477125696,0.327799471,0.452647638,0.626967431,1,2,0.716533319,1,1,1,2,0.830757385,2,0,0,7,story
88,0,0.49498147,0.306514673,0.43723061,0.642779536,2,1,0.973188805,1,2,2,1,1.269854658,1,0,0,7,story
89,1,0.510363701,0.3257611,0.43042533,0.618107467,2,1,1.017480465,2,2,1,2,1.190963389,2,1,0,7,story
90,1,0.514680945,0.353719449,0.440182304,0.649763551,1,2,0.745632069,2,2,2,1,0.983132784,2,0,0,7,story
91,1,0.538747066,0.346461409,0.381470472,0.685575817,1,2,1.112910176,2,2,2,1,0.845334032,2,1,0,7,story
92,1,0.485212699,0.353377511,0.438287284,0.693313323,1,2,1.055275601,2,2,2,1,0.790999551,1,0,0,7,story
93,0,0.527142667,0.375983472,0.398042225,0.734675845,1,2,0.74409096,1,2,1,2,1.319776759,2,1,0,7,story
94,1,0.530542719,0.378444694,0.391775173,0.725199128,1,2,0.955077613,2,2,2,1,0.786188182,2,1,0,7,story
95,0,0.503276977,0.374699819,0.406077829,0.733373026,2,1,0.898555926,2,1,2,1,1.432828269,2,0,0,7,story
96,0,0.511462762,0.358322761,0.422127704,0.703696208,2,1,0.798423633,2,1,2,1,1.415750409,1,0,0,7,story
97,1,0.51952452,0.323712831,0.418633101,0.667799962,2,1,0.818519824,2,2,1,2,0.711814464,2,1,0,7,story
98,0,0.524996143,0.314230837,0.420018303,0.703138948,2,1,0.818847092,2,1,2,1,1.243743201,1,0,0,7,story
99,1,0.546377736,0.309298385,0.418040735,0.745235955,1,2,1.165379295,2,2,2,1,0.542636339,2,1,0,7,story
100,1,0.539714119,0.322869352,0.451268149,0.714351767,1,2,0.83466199,1,1,2,1,0.870783422,2,0,0,7,story
101,1,0.553553624,0.320132156,0.508462586,0.720239274,1,2,0.652152701,1,1,2,1,0.95622124,1,1,0,7,story
102,1,0.591741005,0.368609655,0.454662224,0.721432072,2,1,0.754885652,1,1,1,2,0.629841881,2,1,0,7,story
103,1,0.623033847,0.350100022,0.458485044,0.695453588,1,2,0.958569065,1,1,2,1,0.748926739,2,0,0,7,story
104,0,0.632479435,0.320409081,0.454756508,0.688980146,1,2,0.743857714,1,2,2,1,1.032798134,2,1,0,7,story
105,1,0.634689353,0.301561165,0.435941476,0.676685205,1,2,0.727549504,2,2,1,2,0.759212449,2,1,0,7,story
106,1,0.64557516,0.250031233,0.474848884,0.725198242,2,1,0.862164182,2,2,2,1,0.716932006,2,1,0,7,story
107,1,0.62764214,0.274043501,0.492788711,0.715928578,2,1,0.69898505,2,2,2,1,0.749820546,2,1,0,7,story
108,1,0.615291882,0.317121507,0.498490946,0.653715044,2,1,0.718020184,2,2,1,2,0.705502066,2,1,0,7,story
109,0,0.565859861,0.341029168,0.470675136,0.630899884,1,2,0.647440476,2,1,1,2,1.220981259,1,1,0,7,story
110,1,0.558265967,0.35704998,0.47013563,0.640469619,1,2,0.831834112,2,2,2,1,0.554048499,2,1,0,7,story
111,0,0.573919517,0.348876582,0.472329175,0.635657271,1,2,0.724426906,2,1,2,1,1.494272222,1,0,0,7,story
112,1,0.59267162,0.354602486,0.513955807,0.624772556,1,2,0.730801985,2,2,1,2,0.755104433,2,1,0,7,story
113,1,0.642345977,0.328362469,0.517904652,0.618998285,2,1,0.884939986,2,2,1,2,0.99278385,2,1,0,7,story
114,1,0.644914049,0.26608319,0.508141793,0.584862615,1,2,0.943837524,2,2,2,1,0.520994217,2,0,0,7,story
115,1,0.661868349,0.288312587,0.542414168,0.545841633,1,2,0.804921965,2,2,2,1,0.773169218,2,0,0,7,story
116,1,0.638649427,0.26302282,0.52246404,0.576084796,1,2,1.132297891,2,2,2,1,0.720941179,1,0,0,7,story
117,1,0.676059346,0.258256254,0.483879763,0.583739786,2,1,0.700690395,2,2,2,1,0.773394327,2,0,0,7,story
118,1,0.693996167,0.273495666,0.5276223,0.60085455,2,1,0.761091373,1,1,1,2,0.710404744,1,1,0,7,story
119,1,0.723552773,0.269622187,0.532508541,0.604012348,1,2,1.006746344,1,1,2,1,0.929964531,1,1,0,7,story
120,1,0.733502604,0.257373992,0.543977861,0.570627174,2,1,0.820051893,1,1,1,2,0.912456944,1,0,0,7,story
121,1,0.738949559,0.269104899,0.573974205,0.547666017,1,2,0.947002311,2,2,1,2,0.754811219,2,1,0,7,story
122,1,0.749976385,0.276524478,0.614288128,0.552810592,2,1,0.886763159,2,2,2,1,1.018028924,2,0,0,7,story
123,0,0.728535984,0.294916407,0.589537668,0.544753226,2,1,0.878671585,1,2,2,1,1.449066867,2,1,0,7,story
124,1,0.738929494,0.276853238,0.600330584,0.541730364,1,2,0.779998433,1,1,1,2,1.159295321,1,1,0,7,story
125,1,0.747108422,0.258476293,0.60458115,0.576030715,1,2,0.885807877,1,1,1,2,0.868028773,1,1,0,7,story
126,1,0.719393685,0.278395635,0.59846702,0.582481819,2,1,1.80591341,1,1,1,2,0.638859206,1,1,0,7,story
127,1,0.698546661,0.296260681,0.565224735,0.631275191,2,1,0.678915378,1,1,2,1,1.182918825,1,1,0,7,story
128,1,0.675130617,0.32049675,0.578459137,0.659430986,1,2,0.941204018,1,1,1,2,0.709973813,1,1,0,7,story
129,1,0.680258197,0.305546183,0.543931435,0.687567943,2,1,0.605660275,2,2,2,1,0.631192536,2,1,0,7,story
130,1,0.664166908,0.313138012,0.563746704,0.675560227,1,2,0.814599248,1,1,1,2,0.793868111,1,1,0,7,story
131,0,0.646770761,0.282675398,0.578763586,0.66257814,2,1,0.920941481,1,2,1,2,1.331963091,2,1,0,7,story
132,1,0.672737301,0.312735772,0.58365996,0.689699787,1,2,0.702412314,1,1,2,1,0.922848731,1,1,0,7,story
133,1,0.654192931,0.315505681,0.559356496,0.65546702,1,2,1.161923704,1,1,2,1,0.673464542,1,1,0,7,story
134,0,0.65465353,0.299153791,0.577144077,0.650209523,2,1,0.734062301,1,2,2,1,0.8040152,2,1,0,7,story
135,1,0.626401865,0.253473935,0.560318227,0.660531332,2,1,0.675992876,2,2,2,1,0.768835791,2,1,0,7,story
136,0,0.653043341,0.29630313,0.559428552,0.668523568,2,1,0.706757795,2,1,1,2,1.050028779,1,1,0,7,story
137,1,0.635203084,0.268553242,0.561078962,0.730656574,1,2,0.801733069,2,2,2,1,0.746882675,2,0,0,7,story
138,0,0.670150081,0.262787939,0.581788758,0.74541354,2,1,0.993949475,1,2,2,1,1.02794548,2,0,0,7,story
139,1,0.658020918,0.261985182,0.606523734,0.714165508,1,2,0.866264966,1,1,2,1,0.896790612,1,1,0,7,story
140,1,0.645855978,0.255388957,0.620993057,0.737746907,2,1,0.849495086,1,1,2,1,0.857731912,1,0,0,7,story
141,1,0.662478234,0.313980371,0.596522675,0.74733092,1,2,1.031705737,2,2,1,2,0.71275257,2,0,0,7,story
142,1,0.670074188,0.345208544,0.607219348,0.705695091,2,1,0.644896772,2,2,1,2,0.681829743,1,1,0,7,story
143,0,0.687899167,0.320321006,0.577891142,0.703708347,2,1,0.623327578,2,1,1,2,1.116933814,2,0,0,7,story
144,1,0.720788649,0.346570159,0.586581123,0.724447338,2,1,0.65207676,2,2,1,2,0.815230277,1,1,0,7,story
145,0,0.721829081,0.327667017,0.570826726,0.713477287,1,2,0.771616657,2,1,1,2,1.380629763,2,1,0,7,story
146,0,0.720027789,0.361059247,0.548233666,0.728302739,2,1,0.64680794,2,1,1,2,1.066992126,2,0,0,7,story
147,0,0.712827762,0.388642516,0.554985532,0.726540617,1,2,0.924193057,2,1,2,1,1.463282194,1,1,0,7,story
148,1,0.735644275,0.423737037,0.565256457,0.723972387,1,2,0.742782795,2,2,1,2,0.761883323,2,0,0,7,story
149,0,0.718547169,0.427814662,0.557277793,0.72259766,1,2,0.936571952,1,2,2,1,1.124653522,1,1,0,7,story
0,0,0.417692869,0.333872094,0.694281343,0.652807519,2,1,1.174714847,2,1,1,2,0.984475001,1,0,0,8,abstract
1,1,0.404498739,0.309504297,0.63932541,0.695537134,2,1,0.829637565,1,1,2,1,1.099393079,2,0,0,8,abstract
2,0,0.407537518,0.314637358,0.63886638,0.709015938,2,1,0.799786644,1,2,2,1,0.815961053,2,1,0,8,abstract
3,1,0.424728309,0.348710121,0.636157916,0.702211126,2,1,0.637856008,1,1,2,1,0.8218826,2,1,0,8,abstract
4,1,0.446627226,0.348171086,0.660742167,0.694564335,2,1,0.645016409,1,1,2,1,0.923073539,2,1,0,8,abstract
5,1,0.439482168,0.354510691,0.62294776,0.708244062,2,1,0.646338737,1,1,2,1,1.027817405,2,0,0,8,abstract
6,1,0.448061607,0.322748961,0.623074135,0.682399057,1,2,0.76757072,1,1,2,1,0.84207673,2,0,0,8,abstract
7,1,0.444812734,0.344637717,0.567862113,0.721053016,2,1,0.962724092,2,2,1,2,1.040509705,2,1,0,8,abstract
8,1,0.434501109,0.343559359,0.594577918,0.730898827,1,2,0.793824113,2,2,1,2,0.804149904,2,1,0,8,abstract
9,1,0.474638844,0.322609025,0.598076668,0.705685546,2,1,0.700313104,2,2,1,2,0.801247593,2,1,0,8,abstract
10,1,0.434535366,0.343580478,0.621101948,0.6869596,1,2,0.759827507,2,2,1,2,0.812245095,2,1,0,8,abstract
11,1,0.454730573,0.349957402,0.558601729,0.702880326,2,1,1.168066141,2,2,1,2,0.809819822,2,1,0,8,abstract
12,0,0.426230257,0.337805192,0.564966901,0.704471374,1,2,0.774678685,2,1,1,2,1.132659513,2,0,0,8,abstract
13,0,0.403349384,0.334445232,0.563778051,0.662602597,1,2,0.690254009,2,1,2,1,1.003524299,1,0,0,8,abstract
14,0,0.356044862,0.296724755,0.563912308,0.649379154,1,2,0.673683322,2,1,2,1,1.191324709,2,0,0,8,abstract
15,1,0.331733278,0.302468238,0.534904192,0.64017676,1,2,0.674817005,2,2,2,1,1.099994877,2,1,0,8,abstract
16,0,0.303432494,0.309579546,0.575385383,0.674725001,2,1,0.777320327,2,1,1,2,1.200024409,2,1,0,8,abstract
17,1,0.283972542,0.287584544,0.522133447,0.680262721,1,2,0.799003432,2,2,2,1,0.9535802,2,1,0,8,abstract
18,0,0.270927502,0.263437484,0.500506953,0.707721401,2,1,0.589522931,2,1,1,2,1.205348979,2,1,0,8,abstract
19,1,0.262700236,0.289403068,0.525300466,0.72180292,2,1,0.580701786,2,2,2,1,0.781378319,2,0,0,8,abstract
20,1,0.285731944,0.251798479,0.500705555,0.718878334,1,2,0.719042668,2,2,1,2,0.789870389,2,1,0,8,abstract
21,1,0.303159661,0.301236758,0.528825799,0.731957329,2,1,0.638140182,2,2,1,2,0.85005801,2,1,0,8,abstract
22,1,0.324798116,0.285156845,0.575876251,0.737109593,2,1,0.611014076,2,2,1,2,0.718195872,2,0,0,8,abstract
23,0,0.294993899,0.264173322,0.589548565,0.744345441,1,2,0.668132438,1,2,1,2,0.678316292,2,1,0,8,abstract
24,1,0.304635221,0.255333747,0.604169291,0.746879124,1,2,0.841029535,1,1,1,2,0.940086006,2,0,0,8,abstract
25,0,0.279750552,0.278264404,0.608376603,0.698544167,2,1,0.614948213,2,1,1,2,0.900007232,2,1,0,8,abstract
26,1,0.253529136,0.288981858,0.607873,0.665418178,1,2,0.810835978,2,2,1,2,0.754075621,2,1,0,8,abstract
27,0,0.262466785,0.266996414,0.630509409,0.640847259,2,1,0.6379657,2,1,1,2,0.690686146,2,1,0,8,abstract
28,1,0.254583406,0.289982505,0.609272088,0.659611043,1,2,0.619916586,2,2,2,1,0.858617583,2,1,0,8,abstract
29,1,0.285689029,0.313996362,0.653609973,0.672259429,2,1,0.882744343,1,1,1,2,0.63737445,2,1,0,8,abstract
30,1,0.322072711,0.32938319,0.66639711,0.650413999,2,1,1.048659139,1,1,2,1,0.716893132,2,1,0,8,abstract
31,1,0.349577892,0.303231257,0.688861452,0.649390656,2,1,0.823025624,1,1,1,2,0.526175947,2,0,0,8,abstract
32,0,0.314684227,0.314199605,0.69756867,0.669159717,1,2,0.747469104,1,2,2,1,0.926798538,2,0,0,8,abstract
33,0,0.306820364,0.250641836,0.716849524,0.627714046,1,2,0.705782322,1,2,1,2,0.729383828,2,1,0,8,abstract
34,0,0.321506963,0.250894552,0.690692787,0.606895504,2,1,0.760133077,1,2,1,2,0.685022857,2,0,0,8,abstract
35,0,0.276594254,0.282256002,0.704423001,0.607148602,2,1,0.948057341,1,2,1,2,0.642859338,2,0,0,8,abstract
36,1,0.256457677,0.294927972,0.677453722,0.638420921,1,2,0.631001178,1,1,2,1,0.591975928,2,1,0,8,abstract
37,0,0.262869114,0.262098656,0.687985266,0.619521549,1,2,0.91001781,1,2,2,1,0.836249507,1,1,0,8,abstract
38,1,0.259743287,0.262459311,0.640878514,0.619443207,1,2,0.738618426,1,1,1,2,0.574925491,2,0,0,8,abstract
39,1,0.264160081,0.293048519,0.650784495,0.643636631,2,1,0.694798682,1,1,1,2,0.683122538,2,1,0,8,abstract
40,0,0.250610311,0.294607553,0.71268976,0.681161409,1,2,0.668538357,1,2,2,1,1.253266192,1,0,0,8,abstract
41,1,0.295101498,0.29698189,0.685885198,0.717959858,2,1,0.611604121,1,1,1,2,0.759480049,2,1,0,8,abstract
42,0,0.285393059,0.290690818,0.656508346,0.688347886,1,2,0.703450468,1,2,1,2,1.187292633,1,0,0,8,abstract
43,1,0.293617404,0.336243132,0.641494535,0.668684781,2,1,0.638232396,1,1,1,2,0.535724252,2,1,0,8,abstract
44,1,0.336041004,0.312903157,0.598198731,0.683384776,1,2,0.602748019,1,1,1,2,0.510327297,2,1,0,8,abstract
45,1,0.371009552,0.321905811,0.625361737,0.706656363,2,1,0.625696196,1,1,1,2,0.658820693,2,0,0,8,abstract
46,1,0.352634381,0.30882302,0.60745754,0.679770836,1,2,0.605085599,1,1,1,2,0.542104756,2,0,0,8,abstract
47,0,0.354677282,0.33027363,0.626141246,0.645000236,2,1,0.612865878,1,2,1,2,0.765992545,2,1,0,8,abstract
48,0,0.383599737,0.330936853,0.644343767,0.626137376,2,1,0.617820087,2,1,1,2,0.855312064,2,0,0,8,abstract
49,1,0.387116039,0.359255205,0.652068658,0.604373941,1,2,0.717814663,2,2,2,1,0.965879839,2,0,0,8,abstract
50,0,0.351998628,0.39470072,0.620407885,0.616573194,1,2,0.718986918,2,1,2,1,0.982972466,2,1,0,8,abstract
51,0,0.379478629,0.384923184,0.581158312,0.630779646,1,2,0.864129593,1,2,1,2,0.968619722,2,1,0,8,abstract
52,1,0.380442811,0.414016893,0.550285204,0.666839306,2,1,0.830012747,1,1,2,1,0.717259273,2,1,0,8,abstract
